Time (s),Gyroscope X (deg/s),Gyroscope Y (deg/s),Gyroscope Z (deg/s),Accelerometer X (g),Accelerometer Y (g),Accelerometer Z (g),Magnetometer X (uT),Magnetometer Y (uT),Magnetometer Z (uT),Barometer (hPa)
0.000000000,-0.1110503,0.1366655,-0.003893861,0.00480856,-0.01824261,0.9969624,3.358849,-3.452499,-43.77758,992.0335
0.007534504,0.01166417,0.07677825,-0.06517285,-0.001025788,-0.02075362,0.9978987,3.358849,-3.452499,-43.77758,992.0335
0.017580509,-0.04961688,-0.1627659,-0.06512945,0.001862637,-0.01826138,0.9945833,3.358849,-3.452499,-43.77758,992.0359
0.027625561,-0.1110329,0.0168457,0.1186272,0.005735648,-0.01529163,0.9941466,3.358849,-3.452499,-43.77758,992.0359
0.037671566,-0.04966554,0.01686212,-0.003875556,0.003354324,-0.02066104,0.9926081,3.358849,-3.452499,-43.77758,992.0359
0.047717094,-0.1723479,0.1966806,-0.1263783,0.0008837907,-0.01732166,0.9974825,3.72298,-2.734044,-43.32042,992.0359
0.057763099,-0.04973344,-0.1026787,0.1798475,0.003345031,-0.01826766,0.9979279,3.72298,-2.734044,-43.32042,992.0359
0.067809105,-0.04969021,0.01717418,-0.003918608,0.0003414243,-0.01533707,0.9913014,3.72298,-2.734044,-43.32042,992.0359
0.077855110,-0.04966631,0.2566755,-0.003913668,0.001309244,-0.01483171,0.9903491,3.72298,-2.734044,-43.32042,992.0359
0.087900162,0.07300589,-0.04266508,0.05737389,0.002283534,-0.01481269,0.9893862,3.72298,-2.734044,-43.32042,992.0359
0.097946167,-0.04963787,0.01724105,-0.06509037,0.001401007,-0.01926446,0.9979172,2.990971,-3.08834,-43.77836,992.0363
0.107991695,0.01171016,-0.1025045,-0.003802876,0.003772397,-0.01530531,0.9927202,2.990971,-3.08834,-43.77836,992.0363
0.118037700,0.1343824,-0.1025261,-0.1261711,0.004317224,-0.01824515,0.9964862,2.990971,-3.08834,-43.77836,992.0363
0.128083706,0.01166152,0.01715729,-0.1261664,-0.0006047082,-0.01778081,0.9912544,2.990971,-3.08834,-43.77836,992.0363
0.138129711,-0.04965806,0.1966933,-0.06485996,0.0009210603,-0.02166386,0.9926,2.990971,-3.08834,-43.77836,992.0363
0.148174763,0.01155509,-0.1027036,-0.003649697,0.0004015667,-0.01924169,0.9931335,2.990545,-2.726093,-43.77478,992.0363
0.158220768,-0.04976435,0.07694542,-0.0648893,0.002753,-0.01239587,0.992309,2.990545,-2.726093,-43.77478,992.0363
0.168266296,-0.1110646,0.1367765,-0.06498092,0.006285395,-0.020142,0.9930821,2.990545,-2.726093,-43.77478,992.0363
0.178312301,-0.04956237,0.07686503,0.05753136,0.007207926,-0.01623228,0.9922027,2.990545,-2.726093,-43.77478,992.0386
0.188358307,-0.1108629,0.1964547,-0.003708138,0.001845323,-0.01680585,0.9950935,3.357997,-2.728005,-43.77042,992.0386
0.198404312,0.07330675,-0.1029795,0.05750226,0.005304636,-0.01967469,0.9940554,3.357997,-2.728005,-43.77042,992.0386
0.208449364,0.1346352,0.1365412,-0.06503912,0.001858991,-0.01968208,0.9892846,3.357997,-2.728005,-43.77042,992.0386
0.218495369,0.01175997,-0.04311271,-0.1262401,0.004282597,-0.0153341,0.9975064,3.357997,-2.728005,-43.77042,992.0369
0.228541374,0.07308867,-0.1030615,-0.06491428,0.006236096,-0.01720657,0.9907503,3.357997,-2.728005,-43.77042,992.0369
0.238586902,-0.04967078,-0.162935,-0.1260962,0.003751438,-0.01527048,0.9879315,3.723406,-3.096291,-43.324,992.0369
0.248632908,-0.04968545,0.01671445,-0.1873551,0.005768362,-0.01867509,0.9912005,3.723406,-3.096291,-43.324,992.0369
0.258678913,0.01177822,0.01669344,-0.06474677,0.008233976,-0.02010394,0.9911565,3.723406,-3.096291,-43.324,992.0352
0.268723965,0.1344503,0.01665365,-0.003498187,0.002298205,-0.01483706,0.9927382,3.723406,-3.096291,-43.324,992.0352
0.278769970,0.01174869,0.1963408,0.1188599,0.004349391,-0.02020095,0.9978811,3.723406,-3.096291,-43.324,992.0352
0.288815975,-0.04953245,-0.1030933,-0.003700796,0.007692975,-0.01621928,0.9912424,2.991396,-3.450586,-43.78194,992.0352
0.298861503,0.1957687,-0.0432241,-0.06490185,0.003775039,-0.01673646,0.988858,2.991396,-3.450586,-43.78194,992.0392
0.308907509,0.1343913,0.01672035,-0.06485877,0.001920319,-0.02121074,0.9988307,2.991396,-3.450586,-43.78194,992.0392
0.318953514,0.07299463,-0.0431532,0.1188591,0.005244311,-0.01529418,0.9936703,2.991396,-3.450586,-43.78194,992.0392
0.328999519,-0.04968764,-0.04319301,-0.003740126,-0.002596299,-0.01489389,0.9922849,2.991396,-3.450586,-43.78194,992.0392
0.339044571,-0.111065,0.1363624,0.1187145,0.003774128,-0.01435701,0.9960932,2.990119,-2.363846,-43.7712,992.0392
0.349090576,0.01162659,0.1961565,0.05735965,0.004375271,-0.02214629,0.9978395,2.990119,-2.363846,-43.7712,992.0392
0.359136104,-0.1110749,0.01648412,-0.1876699,0.004332078,-0.01874542,0.9983912,2.990119,-2.363846,-43.7712,992.0392
0.369182110,-0.1109932,0.1362625,-0.1876073,0.005263356,-0.01580141,0.9965332,2.990119,-2.363846,-43.7712,992.0392
0.379228115,0.01173685,-0.1033376,-0.003696787,0.001792197,-0.01481523,0.9889098,2.990119,-2.363846,-43.7712,992.0395
0.389274120,-0.0496021,0.01634685,0.05757128,-0.0001329635,-0.01584337,0.9932089,3.360966,-3.448964,-44.15956,992.0395
0.399319172,0.07312784,0.07614122,0.05751821,-7.929048E-05,-0.01926165,0.9950516,3.360966,-3.448964,-44.15956,992.0395
0.409365177,-0.04953532,-0.04354666,-0.06496546,0.004789697,-0.01821126,0.9926526,3.360966,-3.448964,-44.15956,992.0395
0.419410705,-0.04947313,-0.1034573,-0.003639693,0.005729178,-0.0148053,0.9941571,3.360966,-3.448964,-44.15956,992.0378
0.429456711,0.01195173,0.01628368,0.05764752,-0.0001656772,-0.01245991,0.9961552,3.360966,-3.448964,-44.15956,992.0378
0.439502716,0.07339577,-0.1034982,-0.06489404,0.004766097,-0.01674529,0.9917262,3.360541,-3.086718,-44.15598,992.0378
0.449548721,-0.04932552,-0.1634088,-0.003645291,0.004258996,-0.01386813,0.9965799,3.360541,-3.086718,-44.15598,992.0378
0.459593773,0.07342336,0.07613136,0.1188669,0.004246056,-0.01289546,0.9966008,3.360541,-3.086718,-44.15598,992.0344
0.469639778,0.0121418,-0.04365051,-0.003655361,0.005289236,-0.01774676,0.9964915,3.360541,-3.086718,-44.15598,992.0344
0.479685783,-0.04906277,0.1958332,-0.0649142,0.006227349,-0.01624086,0.991729,3.360541,-3.086718,-44.15598,992.0344
0.489731312,0.07368578,-0.04380405,-0.003588486,0.003326531,-0.01918809,0.9907238,3.358424,-3.090253,-43.774,992.0344
0.499777317,-0.1103601,0.0160659,0.05764098,0.0008451536,-0.01487953,0.996098,3.358424,-3.090253,-43.774,992.0367
0.509823322,-0.1103563,0.01598931,0.1188897,0.003802286,-0.01678173,0.9950833,3.358424,-3.090253,-43.774,992.0367
0.519868374,0.07373557,-0.04388329,0.05759235,0.006707842,-0.01526912,0.9927049,3.358424,-3.090253,-43.774,992.0367
0.529914379,0.07379708,-0.1036243,-0.06483372,0.005218614,-0.01382472,0.992265,3.358424,-3.090253,-43.774,992.0367
0.539960384,-0.1715731,0.01602287,-0.1260734,0.006232087,-0.01767549,0.9883455,4.092902,-2.731831,-43.76171,992.035
0.550005913,0.1352249,0.07579888,-0.003522842,0.002875745,-0.02116037,0.993558,4.092902,-2.731831,-43.76171,992.035
0.557540417,0.0738696,-0.04399641,0.1190073,0.003287348,-0.0153183,0.9936805,4.092902,-2.731831,-43.76171,992.035
0.567585945,0.1965601,0.01576098,0.1188771,0.002838476,-0.01681817,0.9984405,4.092902,-2.731831,-43.76171,992.035
0.577631950,-0.1715935,-0.04407375,-0.00364517,0.004770652,-0.01770403,0.9897898,4.092902,-2.731831,-43.76171,992.0373
0.587677479,-0.1101693,0.1355392,0.05746897,0.002833099,-0.01918716,0.9897687,3.360966,-3.448964,-44.15956,992.0373
0.597723484,-0.1099732,-0.04415102,0.1186025,0.003774493,-0.01530879,0.993199,3.360966,-3.448964,-44.15956,992.0373
0.607769489,-0.1099891,-0.04422718,-0.003900184,0.004810656,-0.01824609,0.9974414,3.360966,-3.448964,-44.15956,992.0373
0.617815494,-0.04862312,0.01564328,0.179818,0.001308697,-0.01340405,0.9946901,3.360966,-3.448964,-44.15956,992.0356
0.627860546,0.07397076,-0.04415368,-0.003890333,-0.0005742731,-0.0206849,0.9892765,3.360966,-3.448964,-44.15956,992.0356
0.637906551,-0.04880904,0.01571671,0.05737798,-0.001555579,-0.01878993,0.9945907,3.728419,-3.450877,-44.1552,992.0356
0.647952080,0.01249938,-0.04424955,0.1185886,0.003270763,-0.01576633,0.9884024,3.728419,-3.450877,-44.1552,992.0356
0.657998085,-0.04880196,0.07536069,-0.06519679,0.0004160563,-0.01879018,0.9979328,3.728419,-3.450877,-44.1552,992.0339
0.668044090,-0.1100841,0.07530366,-0.1264937,0.006244663,-0.01769639,0.9912188,3.728419,-3.450877,-44.1552,992.0339
0.678090095,0.012664,-0.1044237,0.2410726,0.003244519,-0.01286921,0.9913383,3.728419,-3.450877,-44.1552,992.0339
0.688135624,0.2580219,-0.1044618,0.05717186,0.003371638,-0.02211656,0.992098,3.725876,-3.092166,-43.76965,992.0339
0.698181152,-0.04874976,-0.2241484,0.302173,0.001396451,-0.01830572,0.9998536,3.725876,-3.092166,-43.76965,992.0345
0.708226681,0.01261641,0.01539279,-0.004081322,0.003339471,-0.02016077,0.990703,3.725876,-3.092166,-43.76965,992.0345
0.718272686,0.01260056,-0.04449789,-0.06535885,0.002845492,-0.01873217,0.994089,3.725876,-3.092166,-43.76965,992.0345
0.728318691,0.01260398,0.1948741,-0.126521,0.004272299,-0.01579258,0.993665,3.725876,-3.092166,-43.76965,992.0345
0.738364696,0.01258814,0.1946857,-0.06534865,0.006355835,-0.02358814,0.9987558,3.360467,-2.723881,-44.21606,992.0328
0.748410225,-0.04877111,0.01488362,0.179614,0.003328263,-0.0182398,0.9940969,3.360467,-2.723881,-44.21606,992.0328
0.758455753,-0.1101304,-0.04489362,-0.004151824,0.001789554,-0.01338409,0.992772,3.360467,-2.723881,-44.21606,992.0328
0.768501759,-0.04870641,-0.1645799,0.05717451,0.004791793,-0.01821475,0.9931314,3.360467,-2.723881,-44.21606,992.0328
0.778547287,0.01264044,-0.04479977,0.05719885,0.003830444,-0.01920644,0.9940735,3.360467,-2.723881,-44.21606,992.0311
0.788593292,0.01256676,-0.04485628,0.1184674,-0.0001569288,-0.01342562,0.9951766,2.995205,-3.081269,-44.54232,992.0311
0.798639297,0.1966584,0.13472,0.05718978,0.001835208,-0.01774021,0.989805,2.995205,-3.081269,-44.54232,992.0311
0.808684826,0.01267001,0.01499619,-0.06531274,0.005280852,-0.01773283,0.9945759,2.995205,-3.081269,-44.54232,992.0311
0.818730354,0.01263483,-0.04493155,0.05712304,0.006716954,-0.01718661,0.9888323,2.995205,-3.081269,-44.54232,992.0331
0.828776360,0.01256115,-0.04506317,-0.1266236,-6.881123E-05,-0.01927907,0.997446,3.360541,-3.086718,-44.15598,992.0331
0.838821888,-0.1100452,0.01478956,-0.004091583,0.004805462,-0.02109097,0.9873224,3.360541,-3.086718,-44.15598,992.0331
0.848867893,0.07400776,0.01477099,-0.004067228,0.00472746,-0.01430316,0.9903417,3.360541,-3.086718,-44.15598,992.0331
0.858913898,0.0126484,-0.04515651,-0.1265505,0.005774102,-0.01725787,0.9969782,3.360541,-3.086718,-44.15598,992.0297
0.868959904,0.07405303,-0.1649365,-0.003999332,0.002792184,-0.01626566,0.9893524,3.360541,-3.086718,-44.15598,992.0297
0.879005432,0.01273216,0.07458684,-0.06525773,0.002750722,-0.0119165,0.9932771,2.990545,-2.726093,-43.77478,992.0297
0.889050961,0.01277394,0.01469704,-0.1877411,0.002349417,-0.01730009,0.996996,2.990545,-2.726093,-43.77478,992.0297
0.899096489,-0.04850851,0.07441831,-0.1264919,0.003280878,-0.01483197,0.9936909,2.990545,-2.726093,-43.77478,992.028
0.909142494,0.01291513,0.1343278,-0.00390232,0.0008879825,-0.01732863,0.9984403,2.990545,-2.726093,-43.77478,992.028
0.919188499,-0.04832895,-0.04526691,0.05734678,0.002856336,-0.01970136,0.9935892,2.990545,-2.726093,-43.77478,992.028
0.929234505,-0.04834531,0.1943129,0.1185574,0.002830456,-0.01775602,0.9936309,3.360894,-3.086128,-44.21965,992.028
0.939280033,0.0129433,0.07460824,-0.004060622,0.001332663,-0.0158218,0.9927225,3.360894,-3.086128,-44.21965,992.0286
0.949325562,0.01302334,0.1342355,0.1184136,0.008194427,-0.01528237,0.9970071,3.360894,-3.086128,-44.21965,992.0286
0.959371090,0.07444675,-0.1651018,0.1796245,0.00378971,-0.01676083,0.9922101,3.360894,-3.086128,-44.21965,992.0286
0.969417095,0.565043,0.01464438,-3.862083,-0.01524258,0.0137049,0.9853014,3.360894,-3.086128,-44.21965,992.0286
0.979463100,-1.888695,4.026024,-53.2249,-0.8701591,0.1812066,0.9255403,2.993514,-3.447051,-44.16392,992.0269
0.989509106,4.06162,-0.584069,-57.02204,-0.4724613,0.02373597,0.9741256,2.993514,-3.447051,-44.16392,992.0269
0.999554634,-0.784513,1.212071,-25.11382,0.02272751,-0.08260627,0.9806424,2.993514,-3.447051,-44.16392,992.0269
1.009600639,3.754903,1.63117,-5.393188,0.2020105,-0.05236312,1.004735,2.993514,-3.447051,-44.16392,992.0269
1.019645691,-0.109735,2.170013,1.159941,0.2103657,-0.06421353,0.9761775,2.993514,-3.447051,-44.16392,992.0251
1.029691696,0.9331037,0.493615,3.609708,0.2766664,-0.07380746,1.002432,2.991396,-3.450586,-43.78194,992.0251
1.039737701,3.693559,-1.302525,36.74281,0.9706265,-0.1395428,1.045609,2.991396,-3.450586,-43.78194,992.0251
1.049783706,-3.054221,2.229884,66.93621,-0.01306874,-0.005654773,0.9752968,2.991396,-3.450586,-43.78194,992.0251
1.059829235,1.485195,-0.4044549,54.07492,-0.1370158,-0.02816868,0.9850731,2.991396,-3.450586,-43.78194,992.0234
1.069875240,-0.04839152,0.4337437,40.6012,-0.02453979,0.01787331,0.9983731,2.991396,-3.450586,-43.78194,992.0234
1.079920769,-0.2937654,0.3738724,28.59734,-0.02690818,0.01153124,0.9968137,-0.3178043,-1.622136,-43.80325,992.0234
1.089966297,0.5036996,-0.584069,26.14757,0.04218777,0.001730925,0.9895213,-0.3178043,-1.622136,-43.80325,992.0234
1.100012302,-0.5391392,-0.1050983,28.22987,-0.003374587,0.006981723,0.9932352,-0.3178043,-1.622136,-43.80325,992.0258
1.107546806,-0.6618261,-1.901238,24.249,0.008546252,-0.006487467,0.9924034,-0.3178043,-1.622136,-43.80325,992.0258
1.117592811,2.405347,-7.229787,33.19065,0.0220837,0.01011931,1.006095,-0.3178043,-1.622136,-43.80325,992.0258
1.127638817,0.9331037,-7.708758,36.74281,-0.01818348,-0.01900542,0.996114,0.04922199,-1.261802,-43.79531,992.0258
1.137683868,-0.6618261,-8.427214,37.60023,0.0553263,-0.06525707,0.9913717,0.04922199,-1.261802,-43.79531,992.024
1.147729873,7.006106,-8.307471,43.60216,0.01403807,-0.01516473,0.9907512,0.04922199,-1.261802,-43.79531,992.024
1.157775879,2.65072,-8.067986,48.31797,0.09468106,-0.003095377,1.005895,0.04922199,-1.261802,-43.79531,992.024
1.167821407,0.3810127,-7.409401,49.11414,-0.009434553,-0.01119211,1.00677,0.04922199,-1.261802,-43.79531,992.024
1.177867412,-2.992878,-10.52271,11.87767,0.1411805,-0.04570445,0.9898829,0.0487957,-0.8995552,-43.79173,992.0224
1.187913418,-0.4777957,-4.954677,17.02219,-0.02185573,-0.1095521,0.9980323,0.0487957,-0.8995552,-43.79173,992.0224
1.197958469,0.565043,2.409498,27.61743,0.02580909,0.01571227,0.9793722,0.0487957,-0.8995552,-43.79173,992.0224
1.208004474,-0.109735,-0.5241976,23.63656,-0.002293499,0.00159185,1.000299,0.0487957,-0.8995552,-43.79173,992.0224
1.218050480,-0.784513,-0.224841,19.90066,-0.04409193,0.05171299,0.9948919,0.0487957,-0.8995552,-43.79173,992.0244
1.228096008,-1.950039,0.7331004,17.87961,-0.131772,0.05937012,0.9979296,0.4192176,-1.622427,-44.17651,992.0244
1.238142013,-2.931534,-0.763683,0.3637664,-0.04307029,0.181435,0.953592,0.4192176,-1.622427,-44.17651,992.0244
1.248188019,1.362508,-2.919051,-6.128118,-0.04088059,0.1753654,0.9888935,0.4192176,-1.622427,-44.17651,992.0244
1.258234024,3.509529,-3.158536,-3.67835,-0.03428824,-0.009283911,1.036642,0.4192176,-1.622427,-44.17651,992.0227
1.268279075,-0.2937654,-6.032361,3.732197,0.07574224,-0.2334316,1.004912,0.4192176,-1.622427,-44.17651,992.0227
1.278325081,-10.23141,-4.535577,18.49205,0.08465215,-0.05900847,1.117311,0.4221869,-2.343385,-44.56565,992.0227
1.288370609,-22.86816,-11.12142,13.89873,0.007031765,0.06179207,0.966569,0.4221869,-2.343385,-44.56565,992.0227
1.298416614,-27.77563,-21.29955,7.713069,-0.04153319,0.09470223,1.041297,0.4221869,-2.343385,-44.56565,992.0251
1.308462620,-38.51074,-36.26738,-6.556828,0.05962174,0.1085117,1.052534,0.4221869,-2.343385,-44.56565,992.0251
1.318508625,-39.43089,-50.09766,-53.46988,0.133604,0.2006361,1.019611,0.4221869,-2.343385,-44.56565,992.0251
1.328553676,-30.4134,-51.17535,-62.59526,0.2498442,-0.2402081,0.9602295,-0.6768479,-3.058016,-45.03153,992.0251
1.338599682,-21.94801,-35.6088,-10.47646,0.1886683,-0.4440282,1.120495,-0.6768479,-3.058016,-45.03153,992.0251
1.348645210,-32.19236,-31.77703,8.325511,-0.01489674,-0.04795589,1.101807,-0.6768479,-3.058016,-45.03153,992.0251
1.358691215,-25.81264,-37.76417,-1.657292,-0.02967403,0.06957809,1.103918,-0.6768479,-3.058016,-45.03153,992.0251
1.368737221,-26.36473,-38.1234,-6.679316,0.05752255,0.005442895,1.039807,-0.6768479,-3.058016,-45.03153,992.0251
1.378783226,-22.56144,-39.79979,-15.43723,0.1085366,-0.02160261,1.098342,-2.513271,-1.958175,-45.42455,992.0233
1.388828754,-24.52443,-36.38713,-14.27359,0.1480117,-0.1671543,1.17692,-2.513271,-1.958175,-45.42455,992.0233
1.398874283,-28.69579,-21.06006,6.549429,0.1019717,-0.1570407,1.312933,-2.513271,-1.958175,-45.42455,992.0233
1.408920288,-29.30922,-9.385155,18.73702,0.08887401,-0.02937779,1.396196,-2.513271,-1.958175,-45.42455,992.0233
1.418965816,-34.70744,0.7331004,8.75422,0.1356898,-0.08617223,1.524046,-2.513271,-1.958175,-45.42455,992.0257
1.429011822,-28.08235,18.21553,14.20495,0.09145366,-0.1749132,1.543468,-3.606027,-2.299363,-47.09645,992.0257
1.439057827,-27.46892,22.58614,27.73992,0.07993925,-0.2992991,1.436461,-3.606027,-2.299363,-47.09645,992.0257
1.449103355,-28.14369,-3.817121,28.35236,0.1889027,-0.4093033,1.627016,-3.606027,-2.299363,-47.09645,992.0257
1.459149361,-68.13963,-12.97744,29.63849,0.367957,-0.3930267,1.896997,-3.606027,-2.299363,-47.09645,992.024
1.469194889,-80.83772,-2.739437,30.74088,0.2957078,-0.3879209,1.610125,-4.323009,-1.902648,-50.41208,992.024
1.479240417,-61.75991,-4.775063,39.13134,0.4649554,-0.4413753,1.885855,-4.323009,-1.902648,-50.41208,992.024
1.489286423,-112.0002,8.157146,46.90935,0.5895699,-0.4815853,1.606997,-4.323009,-1.902648,-50.41208,992.024
1.499332428,-98.32061,14.68312,53.03377,0.558188,-0.503599,1.637352,-4.323009,-1.902648,-50.41208,992.0222
1.509378433,-115.7421,19.59257,59.28067,0.5378861,-0.476334,1.666783,-4.323009,-1.902648,-50.41208,992.0222
1.519423962,-119.4841,30.54903,69.141,0.5721296,-0.5446019,1.679507,-3.551332,-2.208029,-56.96428,992.0222
1.529469967,-130.1579,45.2175,85.24822,0.4921748,-0.5088827,1.517382,-3.551332,-2.208029,-56.96428,992.0222
1.539515018,-142.4879,34.68015,95.35351,0.4171104,-0.509112,1.356378,-3.551332,-2.208029,-56.96428,992.0247
1.549561024,-137.0283,38.21255,106.1325,0.3434641,-0.348414,1.344406,-3.551332,-2.208029,-56.96428,992.0247
1.559607029,-131.8755,51.86322,119.6062,0.2689165,-0.3136221,1.185105,-3.551332,-2.208029,-56.96428,992.0247
1.569653034,-114.5153,57.31151,120.0349,0.1552528,-0.2470114,1.132548,1.961974,2.484274,-58.12567,992.0247
1.579698563,-114.3926,54.73704,111.4607,0.07258417,-0.2155012,1.009143,1.961974,2.484274,-58.12567,992.0229
1.589744568,-98.13658,42.7029,100.5593,0.09232492,-0.2213835,0.9155127,1.961974,2.484274,-58.12567,992.0229
1.599789619,-112.3683,38.21255,92.96499,0.04953032,-0.1437933,0.8776499,1.961974,2.484274,-58.12567,992.0229
1.609835625,-111.5708,28.75289,80.89988,0.01929124,-0.2142343,0.6804167,1.961974,2.484274,-58.12567,992.0229
1.619881630,-108.9944,29.29173,72.63192,0.01808229,-0.1256689,0.67513,9.280487,8.867786,-53.83659,992.025
1.629927635,-116.2942,42.76278,70.30463,0.03588986,-0.177271,0.4440303,9.280487,8.867786,-53.83659,992.025
1.637462139,-101.5105,45.09776,74.59173,0.06692187,-0.2021025,0.2996426,9.280487,8.867786,-53.83659,992.025
1.647507191,-86.97207,41.56535,89.41283,0.06418855,-0.3315694,0.1704477,9.280487,8.867786,-53.83659,992.025
1.657553196,-78.32264,20.73013,106.01,0.005785178,-0.2869334,0.1554356,9.280487,8.867786,-53.83659,992.025
1.667599201,-61.26916,13.30608,123.2809,0.03510728,-0.2732013,0.1895746,12.55824,12.4312,-49.24149,992.0215
1.677644730,-25.56727,12.82711,134.0598,-0.1231674,-0.1928543,0.04655202,12.55824,12.4312,-49.24149,992.0215
1.687690735,68.28822,0.2541297,94.12862,-0.2000683,-0.2592822,-0.1790779,12.55824,12.4312,-49.24149,992.0215
1.697736740,113.9891,-7.529144,107.7861,-0.06414731,-0.05213879,0.3284673,12.55824,12.4312,-49.24149,992.0215
1.707782745,85.83245,18.03592,117.1564,-0.1253863,0.007646186,0.4986725,12.55824,12.4312,-49.24149,992.0239
1.717827797,19.45883,37.075,117.4627,-0.1953789,-0.002543946,0.576908,14.74078,15.64931,-45.87263,992.0239
1.727873802,17.92524,33.42285,110.3583,-0.2094088,-0.1945103,0.1279324,14.74078,15.64931,-45.87263,992.0239
1.737919331,44.73233,19.89193,105.0301,-0.1742684,-0.0784999,0.3553283,14.74078,15.64931,-45.87263,992.0239
1.747965336,62.27656,9.055216,96.70088,-0.2306506,-0.1562508,0.3151806,14.74078,15.64931,-45.87263,992.0204
1.758011341,116.0134,0.6732291,87.39177,-0.2732912,-0.1692779,0.02967585,14.74078,15.64931,-45.87263,992.0204
1.768057346,192.5087,-9.744383,91.25015,-0.2367411,-0.09698569,0.4496302,15.45065,11.9741,-40.61565,992.0204
1.778102875,197.1708,-2.978922,91.00517,-0.2520253,-0.0586658,0.7714348,15.45065,11.9741,-40.61565,992.0204
1.788148403,165.5789,10.552,94.49609,-0.3011501,-0.02252629,1.068472,15.45065,11.9741,-40.61565,992.0228
1.798194408,95.95412,31.26748,97.12959,-0.2970496,0.05650231,1.244957,15.45065,11.9741,-40.61565,992.0228
1.808239937,27.1881,53.12052,90.94393,-0.2703289,-0.1072746,0.8016293,15.45065,11.9741,-40.61565,992.0228
1.818285942,54.66997,38.09281,89.71905,-0.291366,-0.09958164,0.7123431,17.99624,7.197883,-34.83831,992.0228
1.828331947,46.75667,27.73507,82.98219,-0.2684194,-0.04275652,0.7637218,17.99624,7.197883,-34.83831,992.0211
1.838377476,53.87251,12.94685,76.98026,-0.3468769,-0.112384,0.5073788,17.99624,7.197883,-34.83831,992.0211
1.848423481,181.4669,-41.11696,63.38404,-0.5469286,-0.1686712,0.3511299,17.99624,7.197883,-34.83831,992.0211
1.858469009,281.0887,-68.71765,34.29305,-0.4146827,0.008884389,0.7076702,17.99624,7.197883,-34.83831,992.0211
1.868514538,302.0681,-73.68697,22.96287,-0.3062279,0.1621953,1.146204,22.02613,0.3209348,-31.22899,992.0231
1.878560543,209.3782,-52.85175,17.94085,-0.3090242,0.2527647,1.462351,22.02613,0.3209348,-31.22899,992.0231
1.888606548,87.24335,-14.65383,18.00209,-0.2581734,0.2088693,1.430003,22.02613,0.3209348,-31.22899,992.0231
1.898652554,20.07226,12.88698,18.92076,-0.2696381,-0.01785007,1.014277,22.02613,0.3209348,-31.22899,992.0231
1.908698082,39.57948,16.1799,26.51504,-0.202323,-0.05555115,0.9608974,22.02613,0.3209348,-31.22899,992.0214
1.918744087,39.27277,19.17347,42.92848,-0.2110743,0.01484672,0.9658012,26.05326,-6.6211,-27.11095,992.0214
1.928789139,30.80737,26.35803,50.27778,-0.2490471,0.04627158,0.9954175,26.05326,-6.6211,-27.11095,992.0214
1.938835144,21.91257,22.88549,51.01271,-0.2971346,-0.0004266845,1.04689,26.05326,-6.6211,-27.11095,992.0214
1.948881149,37.80052,19.1136,49.05289,-0.4117963,0.1387837,0.6452896,26.05326,-6.6211,-27.11095,992.0197
1.958927155,65.95717,11.45007,36.19162,-0.5171249,0.3140328,1.050976,26.05326,-6.6211,-27.11095,992.0197
1.968972683,36.57365,-7.34953,22.28919,-0.383908,0.1605794,1.170063,30.46779,-9.176249,-27.46571,992.0197
1.979018688,5.65655,3.068083,11.20399,-0.3476788,-0.02729513,1.043719,30.46779,-9.176249,-27.46571,992.0197
1.989064693,-5.017212,-2.859179,3.609708,-0.3148993,0.01659767,0.9510796,30.46779,-9.176249,-27.46571,992.0179
1.999109745,-8.452445,-11.00168,-13.1712,-0.2567881,0.0828621,0.901886,30.46779,-9.176249,-27.46571,992.0179
2.009155750,-4.649151,-11.42078,-19.66308,-0.2151542,-0.03412233,1.002616,30.46779,-9.176249,-27.46571,992.0179
2.019201756,0.6263865,-10.58258,-11.0889,-0.1936813,-0.08262076,0.9516509,32.29633,-13.19292,-25.06409,992.0179
2.029247284,-0.9071999,-5.912618,6.610673,-0.1987241,-0.08705491,1.017201,32.29633,-13.19292,-25.06409,992.0186
2.039293289,3.325499,8.516374,19.47195,-0.2601681,0.04163396,1.012143,32.29633,-13.19292,-25.06409,992.0186
2.049339294,19.33614,20.96961,15.30735,-0.2224561,-0.03142014,1.019956,32.29633,-13.19292,-25.06409,992.0186
2.059385299,49.08772,10.25264,15.12362,-0.200423,-0.261651,0.8741052,32.29633,-13.19292,-25.06409,992.0186
2.069430351,97.30367,-14.95319,18.61454,-0.25048,0.0679404,0.9570922,37.03107,-12.56224,-17.55168,992.0168
2.079476356,117.1176,-35.66867,8.509243,-0.2273601,0.1655893,0.9480348,37.03107,-12.56224,-17.55168,992.0168
2.089521885,107.364,-25.84977,9.672883,-0.2018942,0.1346042,0.970224,37.03107,-12.56224,-17.55168,992.0168
2.099567890,101.5977,-8.846313,4.405883,-0.2576526,0.304098,1.049345,37.03107,-12.56224,-17.55168,992.0168
2.109613895,87.55006,-2.919051,-15.68221,-0.2894748,0.2060356,0.9674386,42.49532,-16.66286,-8.103519,992.0175
2.119659900,54.11788,4.504994,-20.76548,-0.243115,0.1334856,1.053764,42.49532,-16.66286,-8.103519,992.0175
2.129705429,28.72169,-29.86115,-6.618072,-0.2670317,-0.132359,0.5788385,42.49532,-16.66286,-8.103519,992.0175
2.139750957,52.70698,-95.59988,21.67674,-0.322152,0.02730289,1.004991,42.49532,-16.66286,-8.103519,992.0175
2.149796963,73.87048,-69.67559,11.14274,-0.2912351,0.09220513,1.228924,42.49532,-16.66286,-8.103519,992.0157
2.159842491,76.01749,-34.89035,15.55233,-0.2227692,0.08154953,1.071703,42.5033,-17.7384,-9.323863,992.0157
2.169888496,61.72447,-27.22681,25.41264,-0.2015004,0.1376222,0.9573544,42.5033,-17.7384,-9.323863,992.0157
2.179934501,54.4246,-25.90964,25.53513,-0.1981189,0.1661392,0.9220229,42.5033,-17.7384,-9.323863,992.0157
2.189980507,48.41294,-23.15556,25.96384,-0.2046741,0.1167128,0.9506988,42.5033,-17.7384,-9.323863,992.0164
2.197514057,42.83068,-18.78495,30.6184,-0.1966447,0.09364628,0.9252565,42.5033,-17.7384,-9.323863,992.0164
2.207560062,37.86187,-18.54547,34.47678,-0.1794216,0.1462174,0.8836575,41.76246,-16.29266,-8.554297,992.0164
2.217606067,30.31662,-17.28817,37.60023,-0.1250073,0.2556944,0.9062929,41.76246,-16.29266,-8.554297,992.0164
2.227651596,4.981772,-8.966056,31.72079,-0.1312726,0.4450317,0.9496447,41.76246,-16.29266,-8.554297,992.0146
2.237697601,-32.25371,15.76081,27.49494,-0.02996237,0.4831814,0.9590057,41.76246,-16.29266,-8.554297,992.0146
2.247743606,-59.4902,31.56684,22.77914,-0.08166835,0.4949957,0.919787,41.76246,-16.29266,-8.554297,992.0146
2.257789612,-68.63038,36.47629,16.28726,-0.123452,0.4062745,0.9406321,38.48298,-16.59232,-13.49917,992.0146
2.267834663,-68.81441,37.61384,9.672883,-0.1530908,0.3240298,0.9610701,38.48298,-16.59232,-13.49917,992.0129
2.277880668,-68.01694,37.79346,5.998231,-0.1793195,0.2773883,0.9750654,38.48298,-16.59232,-13.49917,992.0129
2.287926674,-73.41517,36.2368,5.814499,-0.1729426,0.261269,0.9282272,38.48298,-16.59232,-13.49917,992.0129
2.297972202,-73.10845,22.4664,1.221185,-0.1812933,0.3113699,0.8488775,38.48298,-16.59232,-13.49917,992.0129
2.308018207,-74.21263,0.9127144,-10.66019,-0.1901856,0.3114042,0.8292895,34.46733,-15.80141,-18.44201,992.0167
2.318064213,-80.71503,-18.4856,-19.66308,-0.2108693,0.2379249,0.7971802,34.46733,-15.80141,-18.44201,992.0167
2.328110218,-78.07727,-37.34507,-23.46022,-0.2429321,0.1522841,0.8122904,34.46733,-15.80141,-18.44201,992.0167
2.338155269,-77.58652,-30.28025,-6.373095,-0.2116522,0.007986417,1.037981,34.46733,-15.80141,-18.44201,992.0167
2.348201275,-58.87677,-0.3445836,15.85855,-0.2071681,0.05152792,1.07864,34.46733,-15.80141,-18.44201,992.015
2.358246803,-30.65878,11.62968,19.10449,-0.08617945,-0.1554787,0.9169381,34.83223,-13.62984,-18.41618,992.015
2.368292808,5.349833,-3.75725,43.2347,-0.4920681,0.2935826,0.896177,34.83223,-13.62984,-18.41618,992.015
2.378338814,-8.084384,-0.584069,6.243208,0.178404,0.3219422,1.005193,34.83223,-13.62984,-18.41618,992.015
2.388384819,-10.66081,-19.98238,-8.332909,-0.1871999,0.3858916,0.9597037,34.83223,-13.62984,-18.41618,992.0173
2.398430347,-33.11251,-13.21692,-25.48128,-0.06817991,0.1334096,1.224753,34.83223,-13.62984,-18.41618,992.0173
2.408475876,-38.63343,0.1942584,-21.01046,-0.1441077,0.1083786,1.127405,34.45635,-10.37536,-17.5607,992.0173
2.418521404,-38.94014,0.3140011,-23.95018,-0.1064252,0.1073979,1.125262,34.45635,-10.37536,-17.5607,992.0173
2.428567409,-38.81746,-0.3445836,-28.29851,-0.130667,0.1203902,1.104119,34.45635,-10.37536,-17.5607,992.0156
2.438613415,-37.40656,1.750913,-29.89086,-0.08682619,0.074775,1.029145,34.45635,-10.37536,-17.5607,992.0156
2.448659420,-35.81163,-4.475706,-27.80856,-0.08965258,0.1189982,0.9644874,34.45635,-10.37536,-17.5607,992.0156
2.458704948,-27.53026,-20.82058,-34.2392,-0.1157063,0.09999331,0.9915248,35.18574,-9.29952,-16.77729,992.0156
2.468750954,-17.22456,-29.26244,-39.56745,-0.1575899,-0.04013612,1.056774,35.18574,-9.29952,-16.77729,992.0121
2.478796959,-5.87602,-20.52122,-27.19612,-0.1526259,-0.1576111,1.162962,35.18574,-9.29952,-16.77729,992.0121
2.488842010,-12.1944,-2.739437,-6.434339,-0.1429128,0.04551817,1.209874,35.18574,-9.29952,-16.77729,992.0121
2.498888016,-50.47271,13.30608,-10.04775,-0.09970292,0.2935944,1.220682,35.18574,-9.29952,-16.77729,992.0121
2.508934021,-98.56599,13.60544,-23.95018,-0.1241604,0.231248,1.256365,37.02257,-7.132067,-17.11601,992.0162
2.518979549,-117.0917,7.01959,-23.46022,-0.2252566,0.009008564,1.406876,37.02257,-7.132067,-17.11601,992.0162
2.529025555,-100.4063,13.60544,-2.453466,-0.2814991,-0.3114168,1.554566,37.02257,-7.132067,-17.11601,992.0162
2.539071560,-51.88361,12.28827,17.63463,-0.3468114,-0.3865606,1.608399,37.02257,-7.132067,-17.11601,992.0162
2.549117565,-11.39693,-3.517764,27.12748,-0.4127187,-0.381425,1.660118,37.02257,-7.132067,-17.11601,992.0128
2.559162617,28.47632,-6.810688,44.2146,-0.4522873,-0.2998689,1.816779,36.66054,-6.032218,-18.31923,992.0128
2.569208622,56.20356,6.660362,57.25962,-0.4582423,0.0717356,1.817083,36.66054,-6.032218,-18.31923,992.0128
2.579254627,67.18404,24.86125,52.97252,-0.4433517,0.4365198,1.52161,36.66054,-6.032218,-18.31923,992.0128
2.589300156,75.15869,20.84987,35.39544,-0.5511241,0.6299649,1.298824,36.66054,-6.032218,-18.31923,992.0148
2.599346161,-80.83772,805.8828,-55.00098,-13.55764,9.350948,1.710387,36.66054,-6.032218,-18.31923,992.0148
2.609392166,253.9749,683.5656,-371.1435,0.01049837,-5.341708,-15.82332,38.48141,-3.528445,-15.85319,992.0148
2.619437694,-558.4579,-1435.341,114.1555,5.544538,0.2192664,11.80245,38.48141,-3.528445,-15.85319,992.0148
2.629483223,143.4953,-23.99376,-314.5539,-2.181398,-6.186846,-1.357627,38.48141,-3.528445,-15.85319,992.0098
2.639529228,-8.268414,-365.8591,379.4653,1.058477,3.933301,7.908892,38.48141,-3.528445,-15.85319,992.0098
2.649574757,-10.47678,-35.54893,-141.294,-0.2625139,3.397005,3.991565,38.48141,-3.528445,-15.85319,992.0098
2.659620762,-7.961697,40.90676,-91.01256,-0.8963054,-1.225106,4.249807,31.1396,-9.648386,-16.00116,992.0098
2.669666767,136.9929,107.6034,44.03087,-0.4992882,0.1985491,1.770204,31.1396,-9.648386,-16.00116,992.0098
2.679712772,143.7407,49.94734,-6.434339,-0.4438592,1.434769,1.32596,31.1396,-9.648386,-16.00116,992.0098
2.689758301,115.216,43.12201,-37.11768,-0.5008538,-0.18793,1.795487,31.1396,-9.648386,-16.00116,992.0098
2.699804306,109.8177,98.92209,4.22215,-0.7149155,-0.1651072,1.242989,31.1396,-9.648386,-16.00116,992.0098
2.709849358,85.34171,114.8479,6.671917,-0.4506446,-0.1609547,0.9202509,35.50242,4.708667,-10.45858,992.0104
2.719895363,58.35058,109.5792,8.570488,-0.4195516,-0.3734794,0.4313149,35.50242,4.708667,-10.45858,992.0104
2.729941368,47.12473,64.25658,-4.168304,-0.2799583,-0.2540017,0.4934517,35.50242,4.708667,-10.45858,992.0104
2.739987373,18.66136,74.07549,-11.88507,-0.2469242,0.1125488,0.7841631,35.50242,4.708667,-10.45858,992.0104
2.747521877,-5.630646,83.47528,-12.31378,-0.2236565,0.2045883,0.6777564,35.50242,4.708667,-10.45858,992.0087
2.757567882,-20.41442,70.96217,-31.72819,-0.2204382,0.4587508,0.8531964,35.12049,-4.327056,-6.031718,992.0087
2.767612934,-10.90618,67.42976,-47.46795,-0.2383847,0.3351458,0.9608159,35.12049,-4.327056,-6.031718,992.0087
2.777658939,0.1969823,61.80186,-55.36845,-0.2398538,0.0977871,1.01802,35.12049,-4.327056,-6.031718,992.0087
2.787704468,17.06643,61.80186,-37.60763,-0.2046623,0.0960319,1.117414,35.12049,-4.327056,-6.031718,992.011
2.797750473,25.89989,71.14179,-33.13681,-0.2022816,0.1999275,1.084177,35.12049,-4.327056,-6.031718,992.011
2.807796478,30.19393,76.47034,-34.42294,-0.1495214,0.1271245,0.9501406,38.41679,-6.902981,-3.534692,992.011
2.817842483,20.07226,81.43966,-26.27746,-0.1408199,0.1144343,0.7711702,38.41679,-6.902981,-3.534692,992.011
2.827888012,7.926258,72.45896,-21.25543,-0.1559511,0.1126297,0.6600958,38.41679,-6.902981,-3.534692,992.0052
2.837933540,-1.152574,64.4362,-19.17313,-0.1461694,0.07959681,0.6698741,38.41679,-6.902981,-3.534692,992.0052
2.847979069,-4.035717,56.89241,-19.11189,-0.1646417,0.03364602,0.6689939,43.52919,-2.627582,1.407671,992.0052
2.858025074,2.46669,42.7029,-23.88893,-0.2240688,-0.004485657,0.7274166,43.52919,-2.627582,1.407671,992.0052
2.868071079,3.325499,52.16257,-27.68607,-0.1617866,0.02932427,0.8652593,43.52919,-2.627582,1.407671,992.0076
2.878117084,5.104459,55.15614,-28.91096,-0.2246572,0.0967084,0.7923243,43.52919,-2.627582,1.407671,992.0076
2.888162613,15.90091,44.43917,-41.52726,-0.1935049,0.1187601,0.8227993,43.52919,-2.627582,1.407671,992.0076
2.898208618,27.00407,43.90033,-47.77417,-0.154961,0.04548594,0.795639,48.22095,0.211669,5.184691,992.0076
2.908253670,15.77822,45.03789,-37.73012,-0.2248639,-0.07397349,0.7814965,48.22095,0.211669,5.184691,992.0042
2.918299675,21.17645,45.2175,-24.93008,-0.2610492,-0.2066101,0.8296318,48.22095,0.211669,5.184691,992.0042
2.928345680,24.55033,48.5703,-2.514711,-0.2693876,-0.1697137,0.8261546,48.22095,0.211669,5.184691,992.0042
2.938391685,23.32347,50.18682,14.32744,-0.2883584,0.03880903,0.8192159,48.22095,0.211669,5.184691,992.0042
2.948437214,23.07809,50.18682,14.93988,-0.2902951,0.08509415,0.7402287,50.4311,1.298129,4.011963,992.0065
2.958483219,29.76453,34.5604,11.81643,-0.3187081,0.1298543,0.7585824,50.4311,1.298129,4.011963,992.0065
2.968529224,42.09456,17.67669,-19.60184,-0.381781,0.1778645,0.8064114,50.4311,1.298129,4.011963,992.0065
2.978575230,53.4431,10.01316,-53.16366,-0.3741931,0.1941862,0.9154423,50.4311,1.298129,4.011963,992.0065
2.988620281,52.5843,21.98742,-73.98667,-0.3489169,0.1522344,0.9733202,50.4311,1.298129,4.011963,992.0048
2.998666286,65.58911,32.46491,-75.39529,-0.348462,0.1161531,0.8523285,47.21424,-4.080966,-0.154669,992.0048
3.008712292,75.52675,18.21553,-65.77995,-0.3758636,0.06636126,0.6967112,47.21424,-4.080966,-0.154669,992.0048
3.018757820,82.02915,3.726667,-22.6028,-0.354853,0.08188385,0.7381183,47.21424,-4.080966,-0.154669,992.0048
3.028803825,62.89,-5.733004,7.896801,-0.3967548,0.08073456,0.8911109,47.21424,-4.080966,-0.154669,992.0068
3.038849830,54.66997,13.60544,11.32648,-0.3851944,0.1168495,0.961268,47.21424,-4.080966,-0.154669,992.0068
3.048895359,48.53563,28.0943,8.876708,-0.4167268,0.003430177,0.7846773,41.74059,-7.618176,-6.367498,992.0068
3.058941364,52.89101,14.50351,28.16863,-0.4526451,0.06787595,0.8260034,41.74059,-7.618176,-6.367498,992.0068
3.068986892,62.03119,26.65739,22.96287,-0.405741,0.1791066,0.9287036,41.74059,-7.618176,-6.367498,992.0051
3.079032421,69.3924,29.83057,14.75615,-0.4623263,0.1012176,0.8406582,41.74059,-7.618176,-6.367498,992.0051
3.089078426,70.92599,34.44066,15.98104,-0.445122,0.09796508,0.848637,41.74059,-7.618176,-6.367498,992.0051
3.099124431,98.53055,34.50053,26.14757,-0.4879945,0.02484512,0.6638686,39.20565,-11.89813,-12.23432,992.0051
3.109170437,93.56172,16.77862,55.54478,-0.4542029,0.1015097,0.6816055,39.20565,-11.89813,-12.23432,992.0092
3.119215965,87.91813,17.0181,86.10564,-0.4475347,0.3030147,0.8123171,39.20565,-11.89813,-12.23432,992.0092
3.129261970,118.0378,25.93893,102.1516,-0.4638866,0.304243,0.8828398,39.20565,-11.89813,-12.23432,992.0092
3.139307022,106.5052,23.30459,91.25015,-0.4626875,0.3970499,0.7674698,39.20565,-11.89813,-12.23432,992.0092
3.149353027,104.2355,4.74448,63.56777,-0.4277966,0.3815266,0.7535367,35.1805,-16.56744,-14.366,992.0075
3.159399032,73.80914,8.875602,55.17731,-0.4584005,0.4486604,0.9016991,35.1805,-16.56744,-14.366,992.0075
3.169445038,38.35261,26.71726,55.66727,-0.4353116,0.390422,0.8548282,35.1805,-16.56744,-14.366,992.0075
3.179490566,41.35844,32.04581,56.21847,-0.4312465,0.4175385,0.7461822,35.1805,-16.56744,-14.366,992.0075
3.189536571,53.07504,12.04878,42.6835,-0.4662944,0.4797979,0.7553667,35.1805,-16.56744,-14.366,992.0075
3.199582577,59.14804,7.857789,25.59637,-0.4662593,0.4528956,0.9080591,33.71123,-22.72919,-13.23467,992.0075
3.209628582,51.29608,32.58465,6.916894,-0.4459556,0.5455543,0.9113635,33.71123,-22.72919,-13.23467,992.0075
3.219673633,51.97086,33.84195,8.264267,-0.4634587,0.3064643,0.6467578,33.71123,-22.72919,-13.23467,992.0075
3.229719639,28.599,23.24472,47.27681,-0.4754504,0.4651838,0.7426518,33.71123,-22.72919,-13.23467,992.0081
3.239765167,13.56986,32.22542,43.47968,-0.4404925,0.5993055,0.7553827,33.71123,-22.72919,-13.23467,992.0081
3.249811172,9.398501,29.83057,30.25093,-0.4556973,0.5484267,0.7021728,32.25034,-26.69918,-14.05543,992.0081
3.259857178,13.87657,25.75932,31.96577,-0.4615046,0.5160412,0.7302505,32.25034,-26.69918,-14.05543,992.0081
3.269903183,9.275814,25.34022,28.84232,-0.4852873,0.4699057,0.7456801,32.25034,-26.69918,-14.05543,992.0064
3.279948711,4.368337,25.28035,27.4337,-0.4936877,0.4491481,0.7759362,32.25034,-26.69918,-14.05543,992.0064
3.287482738,3.816246,24.20267,24.8002,-0.4658102,0.4571165,0.7975071,32.25034,-26.69918,-14.05543,992.0064
3.297528744,11.05477,27.31597,17.63463,-0.4780676,0.4906439,0.7824844,30.78181,-27.77827,-14.08359,992.0064
3.307574749,19.76554,23.90331,12.30638,-0.4688721,0.4373159,0.7060987,30.78181,-27.77827,-14.08359,992.0064
3.317620277,26.57467,16.23978,12.06141,-0.47102,0.4130107,0.6998439,30.78181,-27.77827,-14.08359,992.0064
3.327666282,26.82004,14.38376,14.20495,-0.4649437,0.4268772,0.6766378,30.78181,-27.77827,-14.08359,992.0064
3.337712288,20.31764,12.52775,16.3485,-0.4582028,0.5086781,0.6783476,30.78181,-27.77827,-14.08359,992.0064
3.347758293,9.214471,13.48569,16.04228,-0.4462481,0.6022384,0.6774064,30.41938,-29.94571,-14.55507,992.0084
3.357803345,-4.526464,11.74943,15.30735,-0.4141697,0.6353276,0.7301441,30.41938,-29.94571,-14.55507,992.0084
3.367849350,-4.219747,11.56981,6.794406,-0.4324456,0.5492336,0.7638486,30.41938,-29.94571,-14.55507,992.0084
3.377894878,11.91358,16.35952,7.100627,-0.454081,0.4463437,0.7603331,30.41938,-29.94571,-14.55507,992.0084
3.387940883,27.74019,19.1136,16.16477,-0.4716024,0.3904636,0.7218768,30.41938,-29.94571,-14.55507,992.0084
3.397986889,44.73233,16.29965,20.26813,-0.464256,0.4170416,0.6922297,30.41565,-30.67787,-13.7346,992.0084
3.408032894,37.98455,14.38376,17.14467,-0.5213349,0.5994571,0.7318799,30.41565,-30.67787,-13.7346,992.0084
3.418078422,21.48316,22.22691,9.550395,-0.4245847,0.5648374,0.7057058,30.41565,-30.67787,-13.7346,992.0084
3.428124428,17.43449,23.78357,4.038417,-0.4580618,0.5874699,0.6148909,30.41565,-30.67787,-13.7346,992.0067
3.438169479,13.93792,14.38376,-5.393188,-0.4725815,0.6220884,0.6463628,30.41565,-30.67787,-13.7346,992.0067
3.448215484,3.141468,17.61682,-30.13584,-0.4528061,0.6319749,0.7245363,30.41234,-31.77227,-12.91772,992.0067
3.458261490,11.85224,16.53913,-16.66212,-0.4752963,0.4543327,0.6303427,30.41234,-31.77227,-12.91772,992.0067
3.468307495,16.51434,8.935473,-0.3711639,-0.4440896,0.5430871,0.6536204,30.41234,-31.77227,-12.91772,992.0107
3.478353023,26.3293,11.45007,-0.06494296,-0.4372999,0.5044049,0.632641,30.41234,-31.77227,-12.91772,992.0107
3.488399029,33.56783,3.606925,25.59637,-1.065453,1.688819,0.6014966,30.04531,-32.13261,-12.92565,992.0107
3.498445034,25.47049,9.414444,2.997267,-0.484042,0.5845129,0.7093248,30.04531,-32.13261,-12.92565,992.0107
3.508491039,25.22511,11.33033,14.57242,-0.5034053,0.5758438,0.7312777,30.04531,-32.13261,-12.92565,992.0107
3.518536091,32.15693,17.8563,10.34657,-0.4559906,0.534303,0.7037886,30.04531,-32.13261,-12.92565,992.0107
3.528582096,33.38379,16.1799,7.100627,-0.4849534,0.5296971,0.5534554,30.04531,-32.13261,-12.92565,992.0107
3.538628101,15.10344,2.828597,0.9762083,-0.4892197,0.5222816,0.5624206,30.77605,-32.50633,-12.0929,992.0107
3.548673630,4.613711,-5.254033,-4.780746,-0.5337964,0.4389946,0.6336877,30.77605,-32.50633,-12.0929,992.009
3.558719635,8.84641,-6.45146,1.466162,-0.5332068,0.3729919,0.6792132,30.77605,-32.50633,-12.0929,992.009
3.568765640,19.7042,1.212071,16.16477,-0.493819,0.4198799,0.6536562,30.77605,-32.50633,-12.0929,992.009
3.578811169,8.110289,7.259076,27.67868,-0.4064515,0.5739124,0.6262932,30.77605,-32.50633,-12.0929,992.009
3.588857174,13.26314,2.349627,19.34947,-0.378311,0.720605,0.5717965,30.40691,-32.8702,-11.71885,992.0148
3.598902702,23.07809,-6.391589,6.916894,-0.3914151,0.7240717,0.6078642,30.40691,-32.8702,-11.71885,992.0148
3.608948231,16.51434,-4.595448,-0.5548965,-0.4308181,0.6426235,0.6360359,30.40691,-32.8702,-11.71885,992.0148
3.618994236,6.760732,-2.499952,-0.9836059,-0.47768,0.5631868,0.6427382,30.40691,-32.8702,-11.71885,992.0148
3.629040241,-2.256756,1.750913,-0.6773849,-0.5116683,0.5244204,0.6976556,30.40691,-32.8702,-11.71885,992.0148
3.639086246,-6.489455,8.157146,1.282429,-0.5105739,0.5004604,0.649721,29.67081,-33.95724,-11.29266,992.0148
3.649131775,-4.833181,4.205638,2.384825,-0.4901693,0.534111,0.6062637,29.67081,-33.95724,-11.29266,992.0148
3.659177780,-2.440787,2.94834,4.099662,-0.4540564,0.548025,0.6269587,29.67081,-33.95724,-11.29266,992.0148
3.669222832,0.9944473,1.750913,0.9149641,-0.4661383,0.519091,0.5718055,29.67081,-33.95724,-11.29266,992.0148
3.679268837,2.896094,-5.433647,1.772383,-0.4634917,0.4632771,0.5581462,29.67081,-33.95724,-11.29266,992.0148
3.689314842,-4.955868,-10.16348,6.733162,-0.4852641,0.5086007,0.64353,30.40241,-35.05547,-10.46706,992.0148
3.699360847,-4.403777,-9.504898,7.958045,-0.4525867,0.5286728,0.6811387,30.40241,-35.05547,-10.46706,992.0148
3.709406376,1.362508,-8.72657,8.325511,-0.4727402,0.5817162,0.7115981,30.40241,-35.05547,-10.46706,992.0172
3.719452381,5.901924,-5.55339,6.304452,-0.4636021,0.588275,0.6949245,30.40241,-35.05547,-10.46706,992.0172
3.729498386,0.6263865,-6.211975,6.978138,-0.4718955,0.5559255,0.7139165,30.40241,-35.05547,-10.46706,992.0172
3.739544392,4.675055,-3.936864,7.406848,-0.4953081,0.4735063,0.7022264,29.66751,-35.05165,-10.47577,992.0172
3.749589443,8.171632,-1.182782,16.65472,-0.5034631,0.4493552,0.6648755,29.66751,-35.05165,-10.47577,992.0154
3.759635448,7.742228,-0.4643263,23.33034,-0.4916677,0.5071678,0.6291656,29.66751,-35.05165,-10.47577,992.0154
3.769680977,4.491024,-3.577636,24.37149,-0.466945,0.5965252,0.6256699,29.66751,-35.05165,-10.47577,992.0154
3.779726982,4.06162,-5.972489,19.77818,-0.4701635,0.6553243,0.6293379,29.66751,-35.05165,-10.47577,992.0154
3.789772987,6.147297,-5.55339,14.02122,-0.4648025,0.6435352,0.5873873,28.93507,-35.0437,-10.93013,992.0154
3.799818993,7.742228,-13.03731,9.550395,-0.4782366,0.6446968,0.5391107,28.93507,-35.0437,-10.93013,992.0154
3.809864521,11.05477,-24.47273,4.773348,-0.4818833,0.6251812,0.5406297,28.93507,-35.0437,-10.93013,992.0154
3.819910526,13.50851,-32.19614,0.6699873,-0.4908135,0.5756063,0.5856001,28.93507,-35.0437,-10.93013,992.0154
3.829956531,2.896094,-30.99871,2.629801,-0.5140854,0.5916107,0.6861716,28.93507,-35.0437,-10.93013,992.0154
3.840001583,-12.56246,-15.971,3.180999,-0.5098457,0.6190448,0.7336723,28.56557,-35.40815,-10.49242,992.0154
3.847536087,-17.96068,-4.894805,4.038417,-0.5044682,0.6081796,0.6984469,28.56557,-35.40815,-10.49242,992.0154
3.857582092,-20.78248,1.1522,2.874778,-0.4984716,0.61124,0.6228038,28.56557,-35.40815,-10.49242,992.0154
3.867628098,-24.7698,-0.4044549,2.323581,-0.4847613,0.5615854,0.5838307,28.56557,-35.40815,-10.49242,992.0154
3.877674103,-29.92266,1.691042,5.140813,-0.4723786,0.5235695,0.6140836,28.56557,-35.40815,-10.49242,992.0154
3.887719631,-29.24788,3.726667,8.447999,-0.4846158,0.517722,0.5948673,28.93302,-35.41006,-10.48806,992.0154
3.897765160,-13.72798,-3.038794,8.203022,-0.4942216,0.5290613,0.5582821,28.93302,-35.41006,-10.48806,992.0154
3.907810688,-1.09123,-11.60039,5.508278,-0.5022715,0.550735,0.5745946,28.93302,-35.41006,-10.48806,992.0175
3.917856693,-1.766008,-12.49846,3.180999,-0.4964502,0.5077438,0.5425124,28.93302,-35.41006,-10.48806,992.0175
3.927902699,-6.06005,-16.92894,6.12072,-0.5131371,0.5195161,0.5677609,28.93302,-35.41006,-10.48806,992.0175
3.937948704,-18.63546,-13.99525,5.69201,-0.5290089,0.5582044,0.6390808,28.9326,-35.04782,-10.48448,992.0175
3.947994232,-30.90415,-1.362396,6.365697,-0.5204728,0.5446268,0.6473655,28.9326,-35.04782,-10.48448,992.0175
3.958040237,-33.6646,5.462936,9.611639,-0.514054,0.5587431,0.5906357,28.9326,-35.04782,-10.48448,992.0175
3.968086243,-35.99566,4.864223,8.937953,-0.5138731,0.5294319,0.5411549,28.9326,-35.04782,-10.48448,992.0175
3.978131294,-37.09984,-0.6439403,9.121685,-0.5238389,0.5064404,0.5416764,28.9326,-35.04782,-10.48448,992.0175
3.988177299,-42.62075,-2.559823,13.40878,-0.5264028,0.4986529,0.6042678,28.56676,-34.31729,-10.92733,992.0157
3.998223305,-37.4679,-1.122911,16.16477,-0.5309851,0.4819075,0.6245306,28.56676,-34.31729,-10.92733,992.0157
4.008268833,-35.75028,1.990398,18.18583,-0.5656021,0.5182449,0.6532754,28.56676,-34.31729,-10.92733,992.0157
4.018314838,-33.2352,2.409498,20.94181,-0.5440519,0.5008745,0.6034539,28.56676,-34.31729,-10.92733,992.0157
4.028360844,-26.1807,-2.919051,18.06334,-0.5542615,0.5104958,0.5347449,28.56676,-34.31729,-10.92733,992.0175
4.038406849,-24.7698,-11.1813,14.14371,-0.5687362,0.4957108,0.5364242,28.19974,-34.67762,-10.93526,992.0175
4.048452377,-23.29756,-16.15062,15.61357,-0.5436866,0.4436727,0.5097913,28.19974,-34.67762,-10.93526,992.0175
4.058497906,-15.93635,-19.62315,17.69587,-0.5565693,0.4685163,0.5501458,28.19974,-34.67762,-10.93526,992.0175
4.068543911,-13.48261,-24.71222,16.77721,-0.5510464,0.4607385,0.5585708,28.19974,-34.67762,-10.93526,992.0175
4.078589439,-13.85067,-26.50836,19.16573,-0.5219609,0.4545456,0.5894119,28.19974,-34.67762,-10.93526,992.0175
4.088635444,-20.72114,-23.51479,23.75905,-0.535659,0.5051311,0.6341522,27.46652,-34.30801,-11.32238,992.0175
4.098681450,-30.4134,-16.74933,20.88057,-0.5568525,0.5658741,0.6743609,27.46652,-34.30801,-11.32238,992.0175
4.108727455,-29.55459,-10.82207,18.982,-0.5320909,0.5385695,0.6578368,27.46652,-34.30801,-11.32238,992.0157
4.118772983,-29.06385,-8.127857,17.69587,-0.5562683,0.5419429,0.6216401,27.46652,-34.30801,-11.32238,992.0157
4.128818989,-28.75713,-8.846313,13.89873,-0.5376004,0.4917648,0.5960397,26.72907,-33.94548,-10.94553,992.0157
4.138864994,-33.41923,-9.864126,15.98104,-0.5245653,0.4628633,0.5785877,26.72907,-33.94548,-10.94553,992.0157
4.148910045,-33.05117,-12.19911,16.8997,-0.5217742,0.4318829,0.5621052,26.72907,-33.94548,-10.94553,992.014
4.158956051,-29.30922,-16.21049,18.00209,-0.5277759,0.3983935,0.5413067,26.72907,-33.94548,-10.94553,992.014
4.169002056,-27.46892,-22.55685,21.43177,-0.5070912,0.3723948,0.6052979,26.72907,-33.94548,-10.94553,992.014
4.179047584,-22.9295,-23.81415,24.55522,-0.523834,0.393296,0.6460683,25.99791,-33.2095,-11.77471,992.014
4.189093590,-15.32291,-24.23325,23.75905,-0.5334713,0.4849297,0.73908,25.99791,-33.2095,-11.77471,992.0164
4.199139595,-15.13888,-9.205542,17.75712,-0.4798152,0.5048828,0.7617238,25.99791,-33.2095,-11.77471,992.0164
4.209185600,-5.385273,0.3738724,15.55233,-0.463688,0.4835778,0.5758234,25.99791,-33.2095,-11.77471,992.0164
4.219231129,-8.820506,-18.9047,4.589615,-0.5000405,0.4416593,0.5257942,25.99791,-33.2095,-11.77471,992.0164
4.229276657,-13.11455,-29.92102,7.223115,-0.5067475,0.4329098,0.6463419,25.6217,-33.58515,-10.12739,992.0146
4.239322185,-26.36473,-23.21543,10.34657,-0.5155741,0.4746864,0.7727695,25.6217,-33.58515,-10.12739,992.0146
4.249368191,-26.11936,-14.7137,9.672883,-0.5164128,0.4904799,0.7405421,25.6217,-33.58515,-10.12739,992.0146
4.259414196,-23.72696,-16.92894,9.121685,-0.5066832,0.528607,0.7322028,25.6217,-33.58515,-10.12739,992.0146
4.269460201,-20.16904,-20.16199,9.244174,-0.4939896,0.5326127,0.7379664,25.6217,-33.58515,-10.12739,992.0164
4.279505730,-21.76398,-18.96457,7.713069,-0.4949151,0.5670982,0.7439764,27.06443,-35.81578,-4.783714,992.0164
4.289551735,-23.29756,-17.94675,8.01929,-0.4554853,0.5997812,0.7981021,27.06443,-35.81578,-4.783714,992.0164
4.299597740,-25.81264,-14.05512,1.833627,-0.4590351,0.6559336,0.830453,27.06443,-35.81578,-4.783714,992.0164
4.309643745,-22.74547,-13.33666,-11.70134,-0.4798715,0.5514517,0.779961,27.06443,-35.81578,-4.783714,992.0164
4.319688797,-10.72215,-20.10212,-16.47839,-0.498229,0.4431406,0.725063,27.06443,-35.81578,-4.783714,992.0164
4.329734802,-3.606312,-26.74784,-12.00756,-0.508868,0.363643,0.7344397,27.42857,-36.91209,-3.962472,992.0164
4.339780331,-5.262586,-29.26244,-5.331944,-0.5181857,0.3470519,0.7920905,27.42857,-36.91209,-3.962472,992.0164
4.349826336,-7.348263,-27.8854,1.956115,-0.509155,0.377093,0.823815,27.42857,-36.91209,-3.962472,992.0146
4.359872341,-6.366768,-25.96951,8.876708,-0.5055076,0.4364245,0.8327253,27.42857,-36.91209,-3.962472,992.0146
4.369918346,-10.17006,-26.26887,9.979104,-0.4867757,0.4965547,0.8243276,27.42857,-36.91209,-3.962472,992.0146
4.379963875,-27.95967,-26.92746,6.059476,-0.4943924,0.6055711,0.8721983,25.2551,-34.30774,-10.13891,992.0146
4.387497902,-41.76194,-26.98733,1.098696,-0.4642826,0.5836198,0.8643805,25.2551,-34.30774,-10.13891,992.0146
4.397543907,-43.41822,-34.53112,-3.862083,-0.4498239,0.6074674,0.8873218,25.2551,-34.30774,-10.13891,992.0146
4.407589912,-42.43672,-42.79336,-12.49751,-0.4434136,0.6188766,0.9344684,25.2551,-34.30774,-10.13891,992.0146
4.417635441,-43.47956,-42.55387,-16.60087,-0.3791845,0.5578747,1.001785,25.2551,-34.30774,-10.13891,992.0146
4.427681446,-48.87778,-38.66224,-18.19322,-0.4126022,0.5283586,0.9903212,22.6988,-32.45306,-13.39834,992.0146
4.437727451,-46.05598,-38.78198,-19.90806,-0.3937367,0.4294746,0.9727798,22.6988,-32.45306,-13.39834,992.0187
4.447773456,-44.39971,-45.48757,-11.15014,-0.4036237,0.3920846,0.9466506,22.6988,-32.45306,-13.39834,992.0187
4.457818985,-40.47373,-53.80968,-7.842955,-0.3875739,0.3749772,0.9845144,22.6988,-32.45306,-13.39834,992.0187
4.467864513,-40.96448,-57.58158,-2.20849,-0.3775855,0.368577,1.011624,22.6988,-32.45306,-13.39834,992.0187
4.477910042,-41.63926,-59.97643,7.223115,-0.3688695,0.3802496,1.026673,22.33797,-30.26234,-15.03647,992.0187
4.487956047,-43.72493,-63.98781,19.5332,-0.3635228,0.4311296,1.063173,22.33797,-30.26234,-15.03647,992.0187
4.498002052,-51.14749,-69.49598,24.61647,-0.3639367,0.5196685,1.129247,22.33797,-30.26234,-15.03647,992.0187
4.508048057,-73.5992,-67.58009,20.32937,-0.3659661,0.6080914,1.274834,22.33797,-30.26234,-15.03647,992.0187
4.518093586,-107.5835,-55.78544,7.039383,-0.3986009,0.5994948,1.397442,22.33797,-30.26234,-15.03647,992.0187
4.528139591,-103.7188,-50.09766,2.691046,-0.2939653,0.3334513,1.231696,22.692,-28.47188,-12.97699,992.0187
4.538185596,-66.66739,-43.69143,10.77528,-0.2471425,0.3191834,1.26562,22.692,-28.47188,-12.97699,992.0187
4.548230648,-38.63343,-26.14913,17.02219,-0.1845541,0.311452,1.230628,22.692,-28.47188,-12.97699,992.0187
4.558276653,-23.17488,-14.41435,21.55426,-0.155084,0.2919905,1.081095,22.692,-28.47188,-12.97699,992.0187
4.568322658,-14.40276,-12.97744,24.06527,-0.1317787,0.2654678,0.9553924,22.692,-28.47188,-12.97699,992.0187
4.578368187,-12.01037,-13.27679,26.63752,-0.1144169,0.258968,0.8756515,23.79095,-25.57964,-12.93528,992.0187
4.588414192,-13.35992,-13.87551,28.41361,-0.1134758,0.236214,0.7956532,23.79095,-25.57964,-12.93528,992.0187
4.598460197,-10.29275,-18.84483,32.63945,-0.1127035,0.2223011,0.7038706,23.79095,-25.57964,-12.93528,992.0187
4.608506203,-10.04737,-25.07144,43.72465,-0.07895749,0.2146516,0.6757432,23.79095,-25.57964,-12.93528,992.0187
4.618551731,-20.90517,-25.55042,57.19837,-0.02913149,0.2761366,0.7337798,23.79095,-25.57964,-12.93528,992.0187
4.628597736,-31.14952,-22.97595,60.93427,0.01779361,0.376394,0.8070289,22.67857,-24.86473,-11.28594,992.0187
4.638643265,-29.73862,-20.70084,61.73044,0.008684827,0.4527495,0.8613946,22.67857,-24.86473,-11.28594,992.0208
4.648688793,-2.440787,-16.8092,44.7658,-0.03952549,0.5066828,0.8561045,22.67857,-24.86473,-11.28594,992.0208
4.658734798,30.0099,-14.53409,12.06141,-0.03450506,0.4732395,0.7811242,22.67857,-24.86473,-11.28594,992.0208
4.668780804,53.32042,-28.00514,-11.70134,-0.02145419,0.3366183,0.6588747,22.67857,-24.86473,-11.28594,992.0208
4.678826332,60.68163,-51.35496,-13.41618,-0.03181772,0.2793588,0.6878831,24.12324,-22.73661,-7.172583,992.0208
4.688872337,46.38861,-57.64145,-11.51761,-0.03125192,0.2731872,0.8007827,24.12324,-22.73661,-7.172583,992.0208
4.698918343,32.89305,-45.36783,-8.210421,0.009618973,0.2158356,0.795503,24.12324,-22.73661,-7.172583,992.0208
4.708964348,20.6857,-37.2852,0.3025222,-0.008111984,0.2432668,0.7401474,24.12324,-22.73661,-7.172583,992.0208
4.719009876,6.576702,-34.11202,1.772383,-0.008462362,0.2557387,0.6973092,24.12324,-22.73661,-7.172583,992.0208
4.729055405,-5.569303,-29.56179,4.895836,0.0008748581,0.2510282,0.691889,28.5155,-19.88457,-4.608797,992.0208
4.739101410,-17.83799,-18.60534,9.611639,0.001946204,0.2077399,0.6923957,28.5155,-19.88457,-4.608797,992.0208
4.749146938,-14.89351,-14.47422,14.14371,-0.02774066,0.2659518,0.7982142,28.5155,-19.88457,-4.608797,992.0208
4.759192944,14.0606,-18.84483,-5.576921,-0.0438128,0.2342432,0.7166809,28.5155,-19.88457,-4.608797,992.0208
4.769238949,51.11205,-35.90816,-34.85164,-0.02987814,0.1926441,0.6409988,31.08298,-15.91324,-4.538929,992.0208
4.779284954,64.91433,-58.53952,-46.54929,-0.0613747,0.1224435,0.6080606,31.08298,-15.91324,-4.538929,992.0208
4.789330482,59.02536,-63.26935,-39.62869,-0.0464488,0.1131751,0.6365187,31.08298,-15.91324,-4.538929,992.0208
4.799376488,44.60965,-56.26441,-25.7875,-0.02426094,0.1737712,0.6367334,31.08298,-15.91324,-4.538929,992.019
4.809422493,21.85122,-50.03779,-21.56165,-0.04671729,0.2690845,0.6044063,31.08298,-15.91324,-4.538929,992.019
4.819467545,-4.342434,-50.45689,-21.25543,-0.0410415,0.3059689,0.5596617,34.01078,-11.59277,-3.25152,992.019
4.829513550,-27.28489,-44.76912,-20.64299,-0.05691526,0.3086484,0.6321287,34.01078,-11.59277,-3.25152,992.019
4.839559555,-44.15434,-26.98733,-10.23148,-0.04798789,0.2488964,0.7016899,34.01078,-11.59277,-3.25152,992.0231
4.849605083,-45.74927,-16.03087,-8.332909,-0.06843651,0.2654667,0.6633598,34.01078,-11.59277,-3.25152,992.0231
4.859651089,-33.2352,-24.65234,-19.35686,-0.1126797,0.2037136,0.6512671,34.01078,-11.59277,-3.25152,992.0231
4.869697094,-20.16904,-34.95021,-18.49944,-0.1276653,0.05775025,0.6946913,37.2943,-5.116061,-0.2830293,992.0231
4.879743099,-15.07754,-32.43562,-4.597013,-0.1931134,0.02312468,0.7292738,37.2943,-5.116061,-0.2830293,992.0214
4.889788628,-16.48844,-21.47916,13.715,-0.207136,0.01221209,0.734386,37.2943,-5.116061,-0.2830293,992.0214
4.899834156,-23.35891,-13.15705,38.09019,-0.2139519,0.08980375,0.7566754,37.2943,-5.116061,-0.2830293,992.0214
4.909879684,-27.89832,-4.775063,55.54478,-0.2071682,0.2161064,0.7933414,37.2943,-5.116061,-0.2830293,992.0214
4.919925690,-28.63444,-1.781496,64.11897,-0.2167386,0.3274711,0.8494151,38.37481,-0.07685804,2.645006,992.0197
4.927460194,-27.1622,-3.33815,67.05869,-0.2218067,0.3955793,0.9074144,38.37481,-0.07685804,2.645006,992.0197
4.937506199,-33.48058,-2.380209,62.58786,-0.1995157,0.5181735,1.01145,38.37481,-0.07685804,2.645006,992.0197
4.947552204,-50.96346,2.648983,52.6663,-0.2173029,0.5942079,1.095073,38.37481,-0.07685804,2.645006,992.0197
4.957598209,-63.10947,3.187825,37.29401,-0.2622877,0.5263422,1.119254,38.37481,-0.07685804,2.645006,992.0179
4.967643738,-63.78424,-6.152103,28.47485,-0.2811292,0.3873679,1.198292,39.09589,0.2591724,5.076509,992.0179
4.977689266,-53.60123,-3.697378,34.17056,-0.2325497,0.2764907,1.340304,39.09589,0.2591724,5.076509,992.0179
4.987734795,-39.79895,13.18634,55.48354,-0.1597089,0.2869942,1.356894,39.09589,0.2591724,5.076509,992.0179
4.997780800,-29.92266,27.79494,82.06352,-0.0488188,0.3909715,1.295285,39.09589,0.2591724,5.076509,992.0197
5.007826805,-29.79997,37.19474,102.7641,-0.02977273,0.6092399,1.283557,39.09589,0.2591724,5.076509,992.0197
5.017872810,-43.60225,35.15912,94.74107,-0.0379815,0.7382634,1.255704,39.80369,-0.1528621,10.04739,992.0197
5.027918339,-48.01897,16.35952,67.36491,-0.03309328,0.7023184,1.256346,39.80369,-0.1528621,10.04739,992.0197
5.037964344,-45.19717,-10.40297,32.33323,-0.04903344,0.5899375,1.296182,39.80369,-0.1528621,10.04739,992.022
5.048010349,-41.20985,-33.57317,2.446069,-0.04601149,0.4552925,1.352202,39.80369,-0.1528621,10.04739,992.022
5.058055401,-44.27702,-40.33863,-1.289827,0.09576707,0.2289028,1.414126,39.80369,-0.1528621,10.04739,992.022
5.068101406,-48.63241,-32.19614,15.2461,0.1631521,0.1750478,1.440867,39.79964,-6.329917,12.02377,992.022
5.078147411,-46.73076,-21.41929,30.12844,0.1592479,0.2128981,1.447444,39.79964,-6.329917,12.02377,992.022
5.088192940,-43.05016,-12.79782,36.31411,0.1855035,0.1633477,1.481685,39.79964,-6.329917,12.02377,992.022
5.098238945,-30.59743,-3.218407,42.19355,0.2337004,0.1170459,1.507734,39.79964,-6.329917,12.02377,992.022
5.108284950,-13.72798,14.62325,54.62612,0.2833272,0.1736305,1.503881,39.79964,-6.329917,12.02377,992.022
5.118330955,-8.084384,46.11557,55.42229,0.324202,0.2446273,1.443867,43.83534,-6.724401,13.27772,992.022
5.128376484,-4.771838,75.75188,53.40123,0.3629848,0.2436674,1.241513,43.83534,-6.724401,13.27772,992.022
5.138422489,-4.833181,83.35554,49.29787,0.3219481,0.2669203,0.9869487,43.83534,-6.724401,13.27772,992.022
5.148467541,-5.446616,62.87955,28.10739,0.2750552,0.3062461,0.7864029,43.83534,-6.724401,13.27772,992.022
5.158513546,-9.06588,21.92755,0.8537199,0.303047,0.2674173,0.688192,43.83534,-6.724401,13.27772,992.0261
5.168559551,-19.37158,-12.07936,-5.454432,0.3332838,0.2116207,0.7184466,40.55383,-9.205202,9.138993,992.0261
5.178605556,-25.68996,-25.43067,-5.209455,0.3280489,0.222249,0.7862354,40.55383,-9.205202,9.138993,992.0261
5.188651085,-27.95967,-25.3708,-5.454432,0.287756,0.199825,0.7912455,40.55383,-9.205202,9.138993,992.0261
5.198697090,-24.15637,-28.90321,2.75229,0.2611503,0.1339678,0.7713052,40.55383,-9.205202,9.138993,992.0244
5.208743095,-17.34725,-38.18327,12.12265,0.246121,0.100394,0.8132979,40.55383,-9.205202,9.138993,992.0244
5.218789100,-15.20022,-37.82404,18.4308,0.2432471,0.1311686,0.9241314,36.89521,-10.97433,6.594659,992.0244
5.228834629,-16.30441,-26.32874,22.22794,0.2153604,0.1777757,0.9568904,36.89521,-10.97433,6.594659,992.0244
5.238880157,-19.37158,-20.22187,21.00306,0.1725946,0.1847202,0.9333246,36.89521,-10.97433,6.594659,992.0244
5.248925686,-24.52443,-24.35299,11.02026,0.1162717,0.1466877,0.9170147,36.89521,-10.97433,6.594659,992.0244
5.258971691,-26.30339,-28.24463,-2.698443,0.1004025,0.09051912,0.9206917,36.89521,-10.97433,6.594659,992.0244
5.269017696,-27.28489,-26.74784,-8.884107,0.08531895,0.03468305,0.8803073,38.35702,-8.091663,7.468344,992.0244
5.279063701,-29.984,-25.13132,-10.10899,0.0580987,0.00361335,0.8256703,38.35702,-8.091663,7.468344,992.0264
5.289109230,-31.33356,-24.83196,-6.066874,0.04334803,-0.00167697,0.7925897,38.35702,-8.091663,7.468344,992.0264
5.299155235,-33.35789,-19.26392,0.6087431,0.0307435,-0.05563505,0.7656428,38.35702,-8.091663,7.468344,992.0264
5.309201240,-33.35789,-15.01306,13.22505,-0.03730797,-0.1729927,0.7333344,38.35702,-8.091663,7.468344,992.0264
5.319247246,-22.56144,-15.61177,33.31314,-0.08105879,-0.2318913,0.7308791,40.92629,-7.746932,7.948062,992.0264
5.329292774,-13.54395,-8.966056,55.11607,-0.07331862,-0.1605757,0.7045799,40.92629,-7.746932,7.948062,992.0264
5.339338302,-13.97336,-2.200595,73.91805,-0.0309445,-0.03219971,0.7171476,40.92629,-7.746932,7.948062,992.0264
5.349384308,-20.04636,1.750913,89.6578,0.04191582,0.04316214,0.7126109,40.92629,-7.746932,7.948062,992.0264
5.359429836,-27.65295,2.349627,98.6607,0.05424287,0.1161291,0.7342179,42.03348,-1.937273,5.917508,992.0264
5.369475841,-38.44939,3.008211,97.86452,0.04687018,0.1284605,0.7651749,42.03348,-1.937273,5.917508,992.0264
5.379521847,-39.73761,2.110141,89.2291,0.002332957,0.1322191,0.7750779,42.03348,-1.937273,5.917508,992.0264
5.389567375,-29.18653,-3.33815,77.77643,0.0262366,0.1075557,0.7950158,42.03348,-1.937273,5.917508,992.0264
5.399613380,-22.37741,-10.04374,74.22427,0.08735755,0.05441391,0.8467113,42.03348,-1.937273,5.917508,992.0287
5.409659386,-16.42709,-10.64245,82.06352,0.1148928,0.0308756,0.918381,43.8462,-4.528528,10.87998,992.0287
5.419705391,-9.188566,-6.152103,89.53532,0.1004984,0.06100555,0.9650832,43.8462,-4.528528,10.87998,992.0287
5.429750442,0.8104169,0.2541297,93.14872,0.1102322,0.07405178,0.9935672,43.8462,-4.528528,10.87998,992.0287
5.439796448,8.294319,8.217017,93.76116,0.0865606,0.1054635,1.048969,43.8462,-4.528528,10.87998,992.0287
5.449842453,8.232976,22.58614,96.33342,0.08242451,0.1495382,1.135187,43.8462,-4.528528,10.87998,992.0287
5.459887981,9.827906,41.50548,97.5583,0.1137555,0.1479893,1.133546,46.02841,-6.755324,15.40475,992.0287
5.469933987,11.91358,46.41493,95.78222,0.1124102,0.1595252,1.083988,46.02841,-6.755324,15.40475,992.0287
5.477468490,10.01194,42.58316,93.02623,0.1184169,0.1441532,1.067342,46.02841,-6.755324,15.40475,992.0287
5.487514496,8.110289,33.42285,91.55637,0.1329855,0.1075511,1.041096,46.02841,-6.755324,15.40475,992.0287
5.497560501,5.779237,28.99237,97.49706,0.1713009,0.06747197,1.064458,46.02841,-6.755324,15.40475,992.0287
5.507605553,5.901924,30.48915,106.5612,0.1905859,0.08911198,1.064814,45.66138,-7.115657,15.39681,992.0287
5.517651558,7.06745,31.32735,111.767,0.2110494,0.1221892,1.033319,45.66138,-7.115657,15.39681,992.0311
5.527697563,11.60687,24.56189,112.5631,0.2239616,0.1688455,0.9949695,45.66138,-7.115657,15.39681,992.0311
5.537743091,14.42867,13.78505,111.8282,0.2083387,0.2065127,1.006875,45.66138,-7.115657,15.39681,992.0311
5.547789097,19.21346,5.103708,106.4387,0.2264767,0.2218946,1.062664,45.66138,-7.115657,15.39681,992.0311
5.557835102,24.42765,4.924094,103.8665,0.2518641,0.2460758,1.124827,44.55904,-8.92469,15.74783,992.0311
5.567880630,28.96706,9.773672,96.82337,0.2319343,0.3143095,1.140762,44.55904,-8.92469,15.74783,992.0311
5.577926636,27.49482,15.82068,78.87882,0.183004,0.3137168,1.13958,44.55904,-8.92469,15.74783,992.0311
5.587972641,13.2018,13.84492,68.65105,0.1636208,0.1420082,1.103929,44.55904,-8.92469,15.74783,992.0311
5.598017692,1.117134,5.043837,79.61375,0.1692012,0.04879388,1.08706,44.55904,-8.92469,15.74783,992.0314
5.608063698,-6.673485,2.94834,96.94586,0.2296941,0.06362105,1.090399,43.44708,-8.572025,17.39359,992.0314
5.618109703,-9.372597,2.589112,107.7248,0.2704208,0.05250873,1.081797,43.44708,-8.572025,17.39359,992.0314
5.628155708,0.8104169,-10.88194,111.8282,0.2743612,0.1373784,1.124778,43.44708,-8.572025,17.39359,992.0314
5.638201237,19.33614,-21.41929,100.3143,0.3249895,0.2267522,1.228907,43.44708,-8.572025,17.39359,992.0297
5.648247242,27.80154,-24.71222,81.94103,0.4181959,0.2298595,1.293123,43.44708,-8.572025,17.39359,992.0297
5.658293247,28.04691,-26.02938,69.99841,0.4916365,0.158649,1.308443,45.28391,-6.404571,17.05486,992.0297
5.668339252,24.24362,-20.58109,60.50556,0.5377458,0.1504548,1.308974,45.28391,-6.404571,17.05486,992.0297
5.678384781,11.17746,-12.07936,41.39737,0.5512823,0.2195887,1.25817,45.28391,-6.404571,17.05486,992.0321
5.688430786,-12.56246,-8.487085,16.71597,0.5338023,0.2313841,1.212537,45.28391,-6.404571,17.05486,992.0321
5.698475838,-42.13,-7.469273,-6.311851,0.4735352,0.1043402,1.253739,45.28391,-6.404571,17.05486,992.0321
5.708521843,-59.85826,0.134387,-20.88797,0.3866703,-0.1487093,1.317302,43.0774,-2.766499,16.61888,992.0321
5.718567848,-60.22632,10.25264,-29.64589,0.2562785,-0.3545516,1.305477,43.0774,-2.766499,16.61888,992.0303
5.728613853,-48.01897,10.67174,-38.46505,0.1230356,-0.4398247,1.233499,43.0774,-2.766499,16.61888,992.0303
5.738659382,-45.31986,1.511428,-43.54832,0.07263676,-0.5627387,1.192354,43.0774,-2.766499,16.61888,992.0303
5.748705387,-30.72012,-3.817121,-30.74828,0.05400607,-0.605097,1.165688,43.0774,-2.766499,16.61888,992.0303
5.758751392,-14.34142,4.504994,-22.66405,0.02189164,-0.4352368,1.168054,44.55426,-0.9475961,14.99895,992.0361
5.768797398,-4.649151,21.6282,-16.23341,0.07864884,-0.3763134,1.122542,44.55426,-0.9475961,14.99895,992.0361
5.778842926,7.926258,35.99731,-9.557793,0.04199912,-0.2694085,1.011512,44.55426,-0.9475961,14.99895,992.0361
5.788888454,20.37898,44.19969,-0.738629,0.03770126,-0.2067815,0.8893014,44.55426,-0.9475961,14.99895,992.0361
5.798933983,29.27378,43.48123,14.08246,0.04626198,-0.1191537,0.7627646,44.55426,-0.9475961,14.99895,992.0344
5.808979988,29.15109,35.93744,32.45572,0.06359332,0.02129981,0.6784984,46.38392,5.502912,15.08456,992.0344
5.819025993,21.05376,29.3516,43.2347,0.07164567,0.1479514,0.6696637,46.38392,5.502912,15.08456,992.0344
5.829071999,16.26897,31.50697,40.05,0.07021895,0.1862554,0.6848583,46.38392,5.502912,15.08456,992.0344
5.839117527,10.38,40.48767,34.53802,0.03602795,0.1657659,0.6352749,46.38392,5.502912,15.08456,992.0344
5.849163532,8.048945,38.81127,36.8653,0.01929726,0.1135389,0.5643231,46.38392,5.502912,15.08456,992.0344
5.859209537,10.01194,28.87263,47.58303,0.03890454,0.07247387,0.5580704,35.39906,11.43226,6.798558,992.0344
5.869255543,13.81523,21.80781,56.76966,0.04487504,0.04445338,0.6077302,35.39906,11.43226,6.798558,992.0344
5.879301071,22.03525,16.77862,64.36395,0.03044121,0.03768541,0.6440655,35.39906,11.43226,6.798558,992.0368
5.889346600,29.51916,14.50351,67.4874,0.01495682,0.04957299,0.7219955,35.39906,11.43226,6.798558,992.0368
5.899392128,32.64767,21.08936,67.30367,0.007033108,0.08102443,0.7983859,35.39906,11.43226,6.798558,992.0368
5.909438133,30.68468,29.7707,65.71133,-0.03431471,0.09758141,0.7932181,29.53025,12.20622,4.698785,992.0368
5.919484138,25.59317,31.62671,62.15915,-0.08165689,0.08872175,0.7942457,29.53025,12.20622,4.698785,992.0368
5.929530144,16.02359,33.18336,56.76966,-0.09557952,0.08477684,0.8445283,29.53025,12.20622,4.698785,992.0368
5.939575672,4.06162,37.4941,50.21654,-0.1029319,0.05725747,0.8698446,29.53025,12.20622,4.698785,992.0368
5.949621677,-4.833181,36.95526,43.2347,-0.116654,-0.01394594,0.8707941,29.53025,12.20622,4.698785,992.0368
5.959667683,-13.11455,33.96169,37.90645,-0.1139099,-0.06754416,0.8868771,30.25141,10.36464,7.554456,992.0388
5.969713688,-16.97919,30.07006,31.72079,-0.1250228,-0.07695112,0.8905687,30.25141,10.36464,7.554456,992.0388
5.979759216,-13.85067,25.10073,26.3313,-0.1258438,-0.1303582,0.874585,30.25141,10.36464,7.554456,992.0388
5.989804745,-6.428111,21.50846,20.75808,-0.1408667,-0.1388686,0.8821488,30.25141,10.36464,7.554456,992.0388
5.999850273,1.730569,18.81425,17.26716,-0.147067,-0.126504,0.84413,32.07416,7.064214,10.85452,992.0353
6.009896278,9.337158,14.62325,15.67481,-0.1339393,-0.1622176,0.827011,32.07416,7.064214,10.85452,992.0353
6.019942284,16.26897,12.76724,22.84039,-0.1198968,-0.1484845,0.8353698,32.07416,7.064214,10.85452,992.0353
6.027476788,18.2933,14.32389,28.04614,-0.1182016,-0.126624,0.8425327,32.07416,7.064214,10.85452,992.0353
6.037522793,18.78405,17.61682,35.76291,-0.08999362,-0.07286181,0.8559794,32.07416,7.064214,10.85452,992.0377
6.047568798,16.02359,21.92755,41.45862,-0.0629222,-0.016471,0.8407508,32.07416,7.064214,10.85452,992.0377
6.057614326,17.12778,20.90974,39.4988,-0.06003733,0.01490568,0.8126675,33.90344,8.130195,12.09665,992.0377
6.067659855,17.12778,11.45007,38.27392,-0.0476504,0.03226186,0.7885435,33.90344,8.130195,12.09665,992.0377
6.077705383,21.05376,-0.7038116,39.4988,-0.04033066,0.07933444,0.8168093,33.90344,8.130195,12.09665,992.0435
6.087751388,24.55033,-9.864126,38.39641,-0.007559376,0.1252756,0.8429959,33.90344,8.130195,12.09665,992.0435
6.097797394,25.96124,-19.56328,31.16959,0.04771936,0.1871845,0.9187332,33.90344,8.130195,12.09665,992.0435
6.107843399,21.72854,-24.65234,21.67674,0.09019266,0.1970281,1.040846,34.27174,7.403788,12.09384,992.0435
6.117888927,16.39165,-25.01157,13.1638,0.1211596,0.1413128,1.127615,34.27174,7.403788,12.09384,992.0417
6.127934933,13.6312,-18.60534,9.611639,0.108209,0.1321592,1.16006,34.27174,7.403788,12.09384,992.0417
6.137980938,13.56986,-14.35448,3.119755,0.05255878,0.1051097,1.106622,34.27174,7.403788,12.09384,992.0417
6.148026943,18.84539,-21.59891,-4.474525,0.001901428,0.1447468,1.056497,33.89639,6.303639,13.734,992.0417
6.158072471,23.9369,-37.40494,-23.88893,-0.07408264,0.270649,1.075407,33.89639,6.303639,13.734,992.0438
6.168118000,21.23779,-60.57515,-52.06126,-0.1810005,0.2505372,1.184286,33.89639,6.303639,13.734,992.0438
6.178163528,11.97493,-74.64491,-69.45461,-0.2364484,0.09743915,1.469653,33.89639,6.303639,13.734,992.0438
6.188209534,-3.667656,-56.38416,-61.6766,-0.2278139,-0.05580675,1.749877,33.89639,6.303639,13.734,992.0438
6.198255539,-22.13204,-21.06006,-43.11961,-0.2146581,-0.1796292,1.806553,34.62841,4.843165,14.55602,992.0422
6.208301544,-32.13102,4.624737,-22.35783,-0.1675131,-0.2748064,1.66249,34.62841,4.843165,14.55602,992.0422
6.218347072,-26.97817,7.738047,-6.311851,-0.09568661,-0.2824599,1.499567,34.62841,4.843165,14.55602,992.0422
6.228393078,-10.7835,1.511428,0.6087431,0.009356964,-0.1516193,1.413658,34.62841,4.843165,14.55602,992.0422
6.238439083,0.1356388,6.301135,5.079569,0.1276952,0.03380278,1.403559,34.62841,4.843165,14.55602,992.0427
6.248485088,13.93792,25.22048,7.774313,0.2657907,0.2356676,1.373587,37.56964,7.371251,13.7883,992.0427
6.258530617,14.91941,44.61879,-1.351071,0.3102999,0.3753968,1.234556,37.56964,7.371251,13.7883,992.0427
6.268576145,7.864915,41.44561,-21.25543,0.2846388,0.4160858,1.082777,37.56964,7.371251,13.7883,992.0427
6.278621673,-3.544969,27.13636,-40.73109,0.2875852,0.3515564,0.9975652,37.56964,7.371251,13.7883,992.0427
6.288667679,-13.97336,17.91617,-56.65458,0.2302235,0.3069538,0.9466356,37.56964,7.371251,13.7883,992.0427
6.298713684,-21.02785,17.79643,-64.43258,0.1959558,0.15681,0.930685,33.91549,9.602163,9.628091,992.0427
6.308759689,-25.7513,15.28183,-51.32633,0.2477323,-0.01914525,0.9299974,33.91549,9.602163,9.628091,992.0427
6.318805218,-31.3949,11.50994,-26.70617,0.2578511,-0.06843271,0.9676853,33.91549,9.602163,9.628091,992.045
6.328851223,-32.00834,9.414444,-11.39512,0.2606948,-0.07809916,1.030207,33.91549,9.602163,9.628091,992.045
6.338897228,-28.63444,8.456503,-3.617106,0.2708383,-0.1207694,1.094379,33.91549,9.602163,9.628091,992.045
6.348943233,-22.62278,8.995344,7.59058,0.230241,-0.1136767,1.120616,32.4557,10.71541,7.584173,992.045
6.358988762,-15.32291,11.03097,14.32744,0.1942988,-0.02744649,1.110201,32.4557,10.71541,7.584173,992.0434
6.369034767,-10.66081,11.27046,12.1839,0.1785399,0.02933783,1.035824,32.4557,10.71541,7.584173,992.0434
6.379080295,-9.127223,6.061649,8.75422,0.160903,0.04091846,0.9528289,32.4557,10.71541,7.584173,992.0434
6.389125824,-9.863344,-0.3445836,6.243208,0.1421651,0.02999461,0.8851649,32.4557,10.71541,7.584173,992.0434
6.399171829,-12.6238,-2.679565,6.059476,0.1371766,-0.01210089,0.8454976,31.00092,11.47407,4.709052,992.0434
6.409217834,-15.26157,0.9725857,10.34657,0.1110253,-0.04426005,0.8085529,31.00092,11.47407,4.709052,992.0434
6.419263363,-17.04053,6.361006,8.325511,0.1049694,-0.04259829,0.7707838,31.00092,11.47407,4.709052,992.0434
6.429309368,-23.911,7.678175,5.38579,0.09296674,-0.07023688,0.738169,31.00092,11.47407,4.709052,992.0434
6.439355373,-40.59642,4.32538,7.529336,0.05525984,-0.02987432,0.7435477,31.00092,11.47407,4.709052,992.0453
6.449401379,-54.09198,1.511428,7.651824,0.07534186,-0.0604464,0.766733,32.10241,14.0076,4.365195,992.0453
6.459446907,-53.60123,8.755859,7.713069,0.07194107,-0.1761746,0.7532644,32.10241,14.0076,4.365195,992.0453
6.469492912,-46.73076,16.53913,13.95998,0.04017643,-0.2354668,0.6918231,32.10241,14.0076,4.365195,992.0453
6.479538441,-40.41239,13.36595,23.63656,0.03799446,-0.1972024,0.6447561,32.10241,14.0076,4.365195,992.0403
6.489583969,-39.61492,3.84641,30.6184,0.05130328,-0.1327894,0.6403113,32.10241,14.0076,4.365195,992.0403
6.499629974,-36.42506,-3.996735,34.35429,0.02485256,-0.1268798,0.6525561,31.76211,15.86965,-0.905329,992.0403
6.509675980,-28.75713,-6.391589,41.70359,0.02426866,-0.1649865,0.7398741,31.76211,15.86965,-0.905329,992.0403
6.519721985,-22.31607,-2.260466,52.85004,0.01891917,-0.1200579,0.7739109,31.76211,15.86965,-0.905329,992.0427
6.529767513,-17.71531,-5.493518,55.48354,-0.0146615,-0.01510902,0.8021994,31.76211,15.86965,-0.905329,992.0427
6.539813518,-20.84382,-8.187729,55.17731,0.004280572,0.0291099,0.9074531,31.76211,15.86965,-0.905329,992.0427
6.549859524,-26.36473,-5.313904,60.81178,-0.00789403,0.01520561,0.9919987,29.21822,19.19689,-6.696982,992.0427
6.559905052,-30.47475,1.511428,64.67017,-0.05815069,0.006274941,0.9978302,29.21822,19.19689,-6.696982,992.0409
6.569951057,-28.26638,7.618304,65.46635,-0.07408468,-0.01424919,0.9835893,29.21822,19.19689,-6.696982,992.0409
6.577485084,-29.24788,9.893414,66.56874,-0.1050189,-0.0172964,0.9492083,29.21822,19.19689,-6.696982,992.0409
6.587531090,-29.49325,8.037403,65.71133,-0.1009592,-0.02605096,0.9557046,29.21822,19.19689,-6.696982,992.0409
6.597576618,-27.03951,3.84641,59.34192,-0.1471634,-0.01627245,0.9379655,25.92287,18.87071,-8.776999,992.0433
6.607622623,-24.58577,-2.320338,47.70552,-0.1344867,-0.04206814,0.9608144,25.92287,18.87071,-8.776999,992.0433
6.617668629,-29.18653,-5.014548,39.80502,-0.153366,-0.01185664,0.9888635,25.92287,18.87071,-8.776999,992.0433
6.627714634,-38.08133,-2.020981,33.00692,-0.1660949,0.01606049,1.074784,25.92287,18.87071,-8.776999,992.0433
6.637760162,-43.90896,13.84492,31.53706,-0.1290426,-0.1054376,1.119883,25.92287,18.87071,-8.776999,992.0416
6.647806168,-41.63926,26.53765,42.37728,-0.1259769,-0.2166404,1.0308,22.25964,18.9087,-10.85779,992.0416
6.657851696,-27.10086,21.80781,48.80792,-0.1376473,-0.2805,0.9624459,22.25964,18.9087,-10.85779,992.0416
6.667897224,-13.72798,14.44364,53.15626,-0.1298558,-0.1954776,0.9910405,22.25964,18.9087,-10.85779,992.0416
6.677943230,-11.33559,19.29321,53.58496,-0.1342282,-0.1273631,0.9829397,22.25964,18.9087,-10.85779,992.0439
6.687989235,-5.078555,25.75932,58.79072,-0.09790875,-0.1248633,0.9018503,22.25964,18.9087,-10.85779,992.0439
6.698035240,-8.391102,19.35309,69.44722,-0.04750255,-0.107145,0.9584702,22.24494,21.78782,-8.791928,992.0439
6.708080769,-14.0347,18.93399,79.61375,-0.01430508,-0.03874053,1.040215,22.24494,21.78782,-8.791928,992.0439
6.718126774,-22.37741,23.78357,81.69606,-0.0120169,0.05212465,1.058906,22.24494,21.78782,-8.791928,992.0439
6.728172779,-34.6461,30.30954,78.02141,0.01333359,0.05781929,1.054578,22.24494,21.78782,-8.791928,992.0439
6.738218307,-42.43672,37.01513,74.89795,-0.04245817,0.01972315,1.047843,22.24494,21.78782,-8.791928,992.0439
6.748264313,-44.21568,38.93101,68.52856,-0.07533769,-0.07808812,1.062698,27.3654,24.62484,-5.009824,992.0439
6.758310318,-41.45523,33.06362,57.74957,-0.1741629,-0.2214555,1.075983,27.3654,24.62484,-5.009824,992.0459
6.768355370,-32.86714,11.92904,37.04903,-0.2996385,-0.4761301,1.030998,27.3654,24.62484,-5.009824,992.0459
6.778401375,-14.4641,-20.70084,28.16863,-0.2950903,-0.8984774,1.114873,27.3654,24.62484,-5.009824,992.0459
6.788447380,8.171632,-40.21889,44.27585,-0.2107659,-0.7540249,1.261184,28.47158,23.17365,-5.393053,992.0459
6.798493385,9.521188,-43.15259,63.07782,-0.1281543,-0.6315359,1.281549,28.47158,23.17365,-5.393053,992.0425
6.808538914,2.896094,-43.21246,92.59752,0.01398007,-0.4833073,1.341412,28.47158,23.17365,-5.393053,992.0425
6.818584919,-2.195413,-34.29163,114.8904,0.09391379,-0.1916838,1.379771,28.47158,23.17365,-5.393053,992.0425
6.828630924,0.7490734,-26.56823,119.8512,0.2125048,0.04536816,1.361673,28.47158,23.17365,-5.393053,992.0425
6.838676929,5.472519,-23.45492,109.1947,0.2963677,0.2667601,1.29793,28.11459,20.28937,-6.699313,992.0448
6.848722458,6.454015,-27.64591,86.0444,0.3257158,0.3532924,1.222983,28.11459,20.28937,-6.699313,992.0448
6.858768463,8.171632,-26.6281,70.79459,0.4128428,0.3428819,1.196421,28.11459,20.28937,-6.699313,992.0448
6.868814468,4.675055,-12.97744,62.52662,0.4158782,0.4194001,1.116136,28.11459,20.28937,-6.699313,992.0448
6.878859520,-4.219747,1.212071,43.7859,0.3984512,0.4025724,0.9932587,28.11459,20.28937,-6.699313,992.0414
6.888905525,-20.04636,5.043837,27.00499,0.3270699,0.3227974,0.8722057,25.16376,18.10821,-4.272766,992.0414
6.898951530,-35.56625,0.2541297,9.672883,0.2064759,0.1354698,0.8066003,25.16376,18.10821,-4.272766,992.0414
6.908997059,-39.55358,-10.10361,0.7312315,0.07022357,-0.1169372,0.7660336,25.16376,18.10821,-4.272766,992.0414
6.919043064,-33.11251,-24.35299,2.017359,-0.04088041,-0.3641328,0.7867476,25.16376,18.10821,-4.272766,992.0397
6.929089069,-20.35308,-34.3515,16.83845,-0.05210255,-0.5556654,0.8809059,25.16376,18.10821,-4.272766,992.0397
6.939135075,-3.176908,-34.53112,34.53802,-0.06489059,-0.5820779,1.011647,26.63604,18.10468,-4.700985,992.0397
6.949180603,12.40433,-25.84977,43.90838,-0.08154865,-0.5167446,1.096951,26.63604,18.10468,-4.700985,992.0397
6.959226608,23.75287,-14.89332,55.72851,-0.03511143,-0.483421,1.075376,26.63604,18.10468,-4.700985,992.0363
6.969272614,30.37796,-10.7622,68.16109,-0.02150868,-0.3096893,1.02441,26.63604,18.10468,-4.700985,992.0363
6.979318619,29.5805,-8.307471,68.46731,0.03333136,-0.167893,1.018996,26.63604,18.10468,-4.700985,992.0363
6.989363670,24.73437,-0.943297,65.46635,0.04613898,-0.06364919,1.02211,26.6356,20.2817,-5.061489,992.0363
6.999409676,19.64286,8.456503,60.75054,0.0623498,0.006087049,1.026384,26.6356,20.2817,-5.061489,992.0386
7.009455204,14.0606,14.68312,53.27874,0.05699893,0.06325101,0.9840484,26.6356,20.2817,-5.061489,992.0386
7.019501209,9.582532,13.30608,39.62129,0.02883273,0.07621247,0.9605312,26.6356,20.2817,-5.061489,992.0386
7.029547215,10.13462,11.86917,26.63752,0.0005624648,0.05143218,0.908908,26.6356,20.2817,-5.061489,992.0386
7.039593220,11.7909,12.76724,21.92172,0.006347877,0.04498838,0.8685062,26.26443,17.73669,-3.881296,992.0369
7.049638748,9.521188,13.78505,17.02219,-0.004148252,0.05046218,0.8341954,26.26443,17.73669,-3.881296,992.0369
7.059684753,7.006106,14.86274,10.04035,0.004578801,0.03881283,0.7788185,26.26443,17.73669,-3.881296,992.0369
7.069730758,5.472519,13.66531,3.915929,0.0191639,-0.00257251,0.7414542,26.26443,17.73669,-3.881296,992.0369
7.079776764,7.987601,8.875602,-3.065908,-0.02384673,-0.05725849,0.6964574,26.26443,17.73669,-3.881296,992.0389
7.089822292,11.05477,3.427311,-7.414246,-0.05319725,-0.09839502,0.6842445,25.8816,16.987,-0.9642929,992.0389
7.099867821,15.65553,0.7929717,-4.352036,-0.06783227,-0.140841,0.6762338,25.8816,16.987,-0.9642929,992.0389
7.109913349,17.37315,-4.116478,1.772383,-0.1132758,-0.1395923,0.6951883,25.8816,16.987,-0.9642929,992.0389
7.117448330,15.96225,-6.45146,1.833627,-0.1070935,-0.1485979,0.7395055,25.8816,16.987,-0.9642929,992.0389
7.127493858,11.11612,-3.876992,-1.963513,-0.1110112,-0.1694335,0.7879359,25.8816,16.987,-0.9642929,992.0372
7.137539863,6.269984,1.990398,-3.372129,-0.1051083,-0.2428656,0.7939989,29.17145,16.57808,2.254507,992.0372
7.147585869,1.730569,5.822164,-1.412315,-0.1147921,-0.2858247,0.7979241,29.17145,16.57808,2.254507,992.0372
7.157631874,2.221316,7.977531,1.833627,-0.1173931,-0.3059156,0.813315,29.17145,16.57808,2.254507,992.0372
7.167677402,5.65655,8.755859,4.160906,-0.1160287,-0.3095305,0.7777873,29.17145,16.57808,2.254507,992.0395
7.177723408,10.07328,5.702421,3.364732,-0.1017796,-0.2493222,0.7512155,29.17145,16.57808,2.254507,992.0395
7.187769413,10.87074,-5.313904,-1.718536,-0.1078247,-0.1708978,0.7275382,33.18752,17.23969,6.82969,992.0395
7.197814464,15.41016,-14.77357,-7.414246,-0.08962648,-0.1291154,0.7656898,33.18752,17.23969,6.82969,992.0395
7.207860470,16.8824,-18.24611,-12.25254,-0.05755384,-0.08650485,0.8468894,33.18752,17.23969,6.82969,992.0378
7.217906475,2.834751,-18.36585,-16.84585,-0.09265096,-0.03021402,0.9402435,33.18752,17.23969,6.82969,992.0378
7.227952003,10.93209,-7.708758,-18.4382,-0.05384136,-0.10821,0.960398,33.18752,17.23969,6.82969,992.0378
7.237998009,-14.77082,-7.76863,-18.68318,-0.1447983,-0.1615834,0.9214389,35.38434,16.12615,8.50034,992.0378
7.248044014,-11.39693,-12.79782,-15.98843,-0.1578868,-0.2216067,0.9911147,35.38434,16.12615,8.50034,992.0384
7.258090019,-2.68616,-4.296092,-6.985537,-0.1595945,-0.2325079,1.015318,35.38434,16.12615,8.50034,992.0384
7.268135547,0.2583258,0.7331004,2.813534,-0.1491373,-0.1792087,0.995804,35.38434,16.12615,8.50034,992.0384
7.278181553,5.717893,2.828597,5.936987,-0.1564478,-0.09876084,1.02582,35.38434,16.12615,8.50034,992.0384
7.288226604,6.024611,7.738047,4.405883,-0.1379924,-0.07214884,1.076578,36.49927,15.05253,6.46544,992.0367
7.298272610,4.368337,13.42582,6.610673,-0.09986779,-0.08432698,1.142685,36.49927,15.05253,6.46544,992.0367
7.308318615,2.773407,17.4372,7.713069,-0.1458101,-0.03326429,1.201023,36.49927,15.05253,6.46544,992.0367
7.318364620,0.9331037,17.07798,0.9149641,-0.1886961,-0.05771978,1.279764,36.49927,15.05253,6.46544,992.0367
7.328410148,5.84058,13.42582,-8.210421,-0.2487005,-0.1207851,1.353942,36.49927,15.05253,6.46544,992.0408
7.338456154,10.38,19.1136,-10.29272,-0.2395599,-0.2013415,1.40821,37.58658,16.11055,8.972121,992.0408
7.348502159,11.72955,30.36941,2.078604,-0.1817158,-0.2293538,1.344552,37.58658,16.11055,8.972121,992.0408
7.358548164,15.41016,29.71083,13.715,-0.151691,-0.1673818,1.236508,37.58658,16.11055,8.972121,992.0408
7.368593693,14.0606,11.98891,17.81836,-0.03417692,-0.1713259,1.241529,37.58658,16.11055,8.972121,992.0391
7.378639698,12.34299,-7.050173,27.9849,0.1658548,-0.1591028,1.369536,37.21116,15.37324,10.55219,992.0391
7.388685703,9.521188,-17.46778,34.96673,0.3182226,-0.01720604,1.513984,37.21116,15.37324,10.55219,992.0391
7.398731708,9.091784,-17.82701,33.55812,0.4947484,0.1008993,1.62618,37.21116,15.37324,10.55219,992.0391
7.408776760,9.091784,-4.894805,23.51407,0.5696903,0.2812614,1.636327,37.21116,15.37324,10.55219,992.0357
7.418822765,10.87074,11.15071,2.017359,0.5736443,0.3972328,1.551132,37.21116,15.37324,10.55219,992.0357
7.428868294,7.43551,18.75437,-24.62386,0.5597677,0.4360932,1.403082,36.46055,10.99533,14.25667,992.0357
7.438914299,5.717893,24.92112,-47.52919,0.5546077,0.4320649,1.213835,36.46055,10.99533,14.25667,992.0357
7.448960304,-1.520634,27.97456,-67.55603,0.4798458,0.3553715,0.9985111,36.46055,10.99533,14.25667,992.0394
7.459006309,-7.041546,26.11855,-77.47759,0.4619954,0.2781612,0.8163924,36.46055,10.99533,14.25667,992.0394
7.469051838,-19.00352,21.74794,-79.74363,0.3887505,0.1787078,0.6556547,36.46055,10.99533,14.25667,992.0394
7.479097843,-29.55459,12.10865,-72.21059,0.2896222,0.02823469,0.5758712,32.79191,8.120612,13.73883,992.0394
7.489143848,-30.29072,-1.482139,-57.02204,0.171609,-0.1189939,0.5527774,32.79191,8.120612,13.73883,992.0377
7.499189854,-21.21188,-18.84483,-44.03827,0.07455057,-0.1946202,0.6192266,32.79191,8.120612,13.73883,992.0377
7.509235382,-12.07171,-27.34655,-30.87077,0.03895665,-0.1960799,0.7587672,32.79191,8.120612,13.73883,992.0377
7.519281387,-8.575131,-23.93389,-17.3358,0.03830002,-0.1472981,0.8723678,32.79191,8.120612,13.73883,992.0377
7.529326439,-5.323929,-14.83345,-8.332909,0.01128479,-0.08385573,0.9327823,34.26545,8.845116,12.93579,992.04
7.539372444,-4.403777,-4.056606,-6.189362,0.01529348,-0.05461084,0.9319479,34.26545,8.845116,12.93579,992.04
7.549418449,-4.710495,3.307568,-6.434339,0.03290158,-0.02836114,0.897927,34.26545,8.845116,12.93579,992.04
7.559464455,-9.249909,3.786539,-10.23148,0.04110859,-0.01108681,0.8115594,34.26545,8.845116,12.93579,992.04
7.569509983,-15.0162,-0.7038116,-13.84489,0.03311991,-0.07342897,0.8078771,34.26545,8.845116,12.93579,992.0383
7.579555988,-15.38426,-7.828501,-11.15014,0.08364749,-0.113326,0.8268652,32.08707,7.811688,8.378806,992.0383
7.589601993,-12.13305,-6.092232,-9.496549,0.07031525,-0.09378587,0.8599247,32.08707,7.811688,8.378806,992.0383
7.599647999,-6.980202,-3.278279,-11.15014,0.06463317,-0.1165245,0.8331274,32.08707,7.811688,8.378806,992.0383
7.609693527,-3.115565,-6.391589,-9.864014,0.05518725,-0.1538283,0.7959816,32.08707,7.811688,8.378806,992.0424
7.619739532,0.8717603,-13.33666,-4.352036,0.05531992,-0.1611826,0.803966,32.08707,7.811688,8.378806,992.0424
7.629785538,3.448185,-19.92251,-0.9223616,0.05532275,-0.1521511,0.8328965,29.16001,6.759106,6.295987,992.0424
7.639831543,7.25148,-25.49054,5.263301,0.05938584,-0.1172896,0.8623562,29.16001,6.759106,6.295987,992.0424
7.649876594,12.34299,-27.4663,10.77528,0.06898886,-0.06040442,0.8831558,29.16001,6.759106,6.295987,992.0407
7.659922600,18.53868,-30.93884,14.20495,0.09158879,-0.02569908,0.898621,29.16001,6.759106,6.295987,992.0407
7.667457104,18.53868,-33.99228,15.42984,0.07978658,0.02025619,0.9145145,29.16001,6.759106,6.295987,992.0407
7.677503109,24.3663,-41.41632,14.93988,0.0567581,0.02716331,0.9291567,27.7032,5.336626,4.227015,992.0407
7.687548637,19.94958,-43.69143,14.63366,0.01529594,-0.01181223,1.066492,27.7032,5.336626,4.227015,992.0389
7.697594643,16.63703,-27.58604,22.41167,-0.01163707,-0.03812775,1.093857,27.7032,5.336626,4.227015,992.0389
7.707640648,16.453,-17.2283,30.55715,0.002237351,-0.07011505,1.034186,27.7032,5.336626,4.227015,992.0389
7.717686653,13.26314,-22.91608,32.82318,-0.02562679,0.01912494,1.091324,27.7032,5.336626,4.227015,992.0389
7.727732181,15.96225,-22.49698,28.59734,-0.03413068,0.05833083,1.170757,26.97077,5.344576,3.772658,992.041
7.737777710,21.97391,-11.89975,27.12748,-0.01663812,0.06588129,1.165554,26.97077,5.344576,3.772658,992.041
7.747824192,23.99824,-6.45146,25.59637,0.02353875,0.1207055,1.120525,26.97077,5.344576,3.772658,992.041
7.757869244,21.78988,-3.038794,21.18679,0.04222393,0.1880472,1.123776,26.97077,5.344576,3.772658,992.041
7.767915249,21.36048,2.648983,15.12362,0.06740109,0.2338468,1.090132,26.97077,5.344576,3.772658,992.0392
7.777961254,17.00509,9.354572,10.40781,0.06967743,0.2398663,1.069174,25.5018,6.442504,3.38399,992.0392
7.788006782,12.2203,19.29321,4.895836,0.09234754,0.2194193,1.042749,25.5018,6.442504,3.38399,992.0392
7.798052788,10.99343,24.44215,-0.2486755,0.06164792,0.2248861,0.9755003,25.5018,6.442504,3.38399,992.0392
7.808098793,8.723723,18.81425,-10.96641,0.02978585,0.1738407,0.9171095,25.5018,6.442504,3.38399,992.0375
7.818144798,6.699389,13.0666,-19.54059,-0.006733973,0.1171136,0.8959816,25.5018,6.442504,3.38399,992.0375
7.828190327,1.607882,13.18634,-29.33966,-0.04105235,0.04002986,0.8681805,26.59201,7.142404,5.441447,992.0375
7.838236332,-1.213917,8.157146,-34.48418,-0.0994515,-0.05939033,0.8606294,26.59201,7.142404,5.441447,992.0375
7.848282337,1.853256,2.409498,-35.52533,-0.1452961,-0.1417329,0.8672642,26.59201,7.142404,5.441447,992.0399
7.858327389,4.675055,-4.355963,-33.13681,-0.1685156,-0.1946433,0.8787142,26.59201,7.142404,5.441447,992.0399
7.868373394,7.006106,-9.504898,-24.37889,-0.1488219,-0.2012665,0.8861284,26.59201,7.142404,5.441447,992.0399
7.878419399,9.582532,-9.564769,-16.23341,-0.1102891,-0.148413,0.9081205,30.9847,9.632197,8.001654,992.0399
7.888464928,12.52702,-7.169916,-13.35493,-0.07194793,-0.05161949,0.9085409,30.9847,9.632197,8.001654,992.0383
7.898510933,13.38583,-7.110044,-15.49848,-0.0617293,0.02300178,0.9000202,30.9847,9.632197,8.001654,992.0383
7.908556938,10.56403,-6.631074,-16.90709,-0.07974511,0.05817228,0.9166754,30.9847,9.632197,8.001654,992.0383
7.918602943,12.40433,-4.775063,-16.41714,-0.06150669,0.0879983,0.9267917,30.9847,9.632197,8.001654,992.0383
7.928648472,7.864915,0.493615,-15.06977,-0.03003191,0.1188937,0.9459588,37.22373,14.30535,8.504225,992.0408
7.938694477,0.4423561,4.924094,-11.88507,0.005609314,0.1194558,0.9290123,37.22373,14.30535,8.504225,992.0408
7.948740482,-5.201242,6.959719,-9.925258,-0.02116143,0.1515788,0.9485241,37.22373,14.30535,8.504225,992.0408
7.958786488,-11.27424,12.6475,-9.312816,0.007498485,0.1433719,0.9879458,37.22373,14.30535,8.504225,992.0408
7.968832016,-12.31708,15.88055,-11.57885,-0.03527259,0.1531786,0.9721044,37.22373,14.30535,8.504225,992.0391
7.978877544,-17.2859,14.32389,-14.88604,-0.05090805,0.09376821,1.020254,41.24013,18.5971,12.28758,992.0391
7.988923073,-22.86816,15.58119,-12.25254,-0.0445951,-0.0003199219,1.057485,41.24013,18.5971,12.28758,992.0391
7.998969078,-24.7698,19.17347,-7.965444,-0.05654299,-0.05930597,1.053896,41.24013,18.5971,12.28758,992.0391
8.009015083,-22.86816,18.03592,-0.6773849,-0.05722532,-0.06374701,0.9948931,41.24013,18.5971,12.28758,992.0414
8.019061089,-12.25574,7.498561,0.7924757,-0.04834119,0.01620964,0.9199183,43.43056,22.91727,14.01192,992.0414
8.029106617,-11.02887,-1.302525,-0.2486755,-0.0226513,0.1382811,0.9017891,43.43056,22.91727,14.01192,992.0414
8.039152622,-20.29173,-10.16348,-2.330978,-0.03005791,0.2017677,0.8562472,43.43056,22.91727,14.01192,992.0414
8.049198627,-19.18755,-16.86907,-10.04775,-0.03259323,0.2626284,0.9116831,43.43056,22.91727,14.01192,992.0398
8.059244633,-25.93533,-17.70727,-18.9894,-0.09194982,0.2732327,1.02479,43.43056,22.91727,14.01192,992.0398
8.069290161,-33.41923,-6.870559,-21.31668,-0.1359382,0.1632865,1.150086,48.90878,28.27691,19.03304,992.0398
8.079336166,-33.05117,7.618304,-19.84682,-0.1611539,0.0009535411,1.152984,48.90878,28.27691,19.03304,992.0398
8.089382171,-27.53026,12.2284,-17.94825,-0.2229038,-0.09482713,1.174266,48.90878,28.27691,19.03304,992.0381
8.099427223,-25.38324,15.04235,-6.373095,-0.189952,-0.1467599,1.279306,48.90878,28.27691,19.03304,992.0381
8.109473228,-23.35891,27.79494,9.060441,-0.1568203,-0.09822088,1.283514,48.90878,28.27691,19.03304,992.0381
8.119519233,-18.75815,29.17199,13.04131,-0.1142532,-0.06657708,1.152722,51.50011,33.01397,14.65362,992.0381
8.129564762,-13.85067,8.995344,14.93988,-0.02201356,-0.02238988,1.119634,51.50011,33.01397,14.65362,992.0402
8.139610767,-9.495284,-10.22335,15.30735,0.03752591,0.07011525,1.143316,51.50011,33.01397,14.65362,992.0402
8.149656772,0.7490734,-26.68797,8.570488,0.08652706,0.1852854,1.17664,51.50011,33.01397,14.65362,992.0402
8.159702778,14.0606,-47.40345,-9.80277,0.1623206,0.2219535,1.279027,51.50011,33.01397,14.65362,992.0402
8.169748306,18.53868,-48.18178,-17.58078,0.2393755,0.2832375,1.410191,45.62431,26.51706,15.28345,992.0366
8.179794311,18.53868,-27.82553,-27.99229,0.244181,0.393857,1.392889,45.62431,26.51706,15.28345,992.0366
8.189840317,14.18329,-17.6474,-44.34449,0.1949308,0.375248,1.260568,45.62431,26.51706,15.28345,992.0366
8.199886322,13.81523,-15.61177,-58.00195,0.1663897,0.3021969,1.223243,45.62431,26.51706,15.28345,992.0366
8.209931850,12.28164,-2.200595,-64.24885,0.1530924,0.1879604,1.188786,45.62431,26.51706,15.28345,992.0391
8.217465877,12.40433,9.055216,-64.31009,0.1836356,0.1120234,1.113238,43.05596,25.085,14.85666,992.0391
8.227511883,8.539693,21.56833,-63.39143,0.2175379,0.07367667,1.025542,43.05596,25.085,14.85666,992.0391
8.237557888,-0.784513,25.34022,-62.90148,0.2405847,0.04628894,0.9510711,43.05596,25.085,14.85666,992.0391
8.247603416,-6.612142,23.84344,-59.0431,0.2412993,0.0102516,0.8909066,43.05596,25.085,14.85666,992.0373
8.257649422,-7.900354,20.3709,-57.32826,0.2011617,-0.004001891,0.8434048,43.05596,25.085,14.85666,992.0373
8.267695427,-12.25574,17.07798,-57.63448,0.2109449,-0.04131778,0.8401597,45.57578,32.60632,22.79293,992.0373
8.277741432,-17.2859,18.81425,-59.16559,0.2243728,-0.125432,0.8560117,45.57578,32.60632,22.79293,992.0373
8.287786960,-24.64712,21.6282,-62.53402,0.2114172,-0.2511747,0.8653715,45.57578,32.60632,22.79293,992.0397
8.297832966,-23.35891,23.00524,-61.18665,0.1375708,-0.3592193,0.8802318,45.57578,32.60632,22.79293,992.0397
8.307878971,-14.77082,18.09579,-58.61439,0.03260918,-0.5125486,0.9148905,45.57578,32.60632,22.79293,992.0397
8.317924976,-1.520634,15.94042,-48.01915,-0.004581926,-0.6394448,0.974649,56.10481,42.24109,32.81935,992.0397
8.327970028,11.36149,24.32241,-27.62483,-0.03539098,-0.5473717,1.038569,56.10481,42.24109,32.81935,992.0397
8.338016033,15.4715,39.46985,-14.94728,-0.02781402,-0.4240782,1.022481,56.10481,42.24109,32.81935,992.0397
8.348061561,18.17062,48.69004,-4.168304,-0.008166325,-0.3392335,0.9623995,56.10481,42.24109,32.81935,992.0397
8.358107567,18.72271,49.88747,3.425976,0.0196522,-0.2028122,0.9148697,56.10481,42.24109,32.81935,992.0397
8.368153572,15.10344,44.07994,6.916894,0.03581362,-0.110298,0.8645503,61.29422,44.46734,24.30725,992.038
8.378199577,12.77239,31.20761,6.488185,0.0448278,-0.05039981,0.8715275,61.29422,44.46734,24.30725,992.038
8.388245106,13.50851,17.0181,1.282429,0.06034562,0.001253322,0.8859565,61.29422,44.46734,24.30725,992.038
8.398291111,20.80838,1.810784,-12.25254,0.07667908,0.06793225,0.9093231,61.29422,44.46734,24.30725,992.038
8.408337116,24.61168,-9.804255,-28.11478,0.05798588,0.08261582,0.93225,61.29422,44.46734,24.30725,992.04
8.418383121,25.83855,-12.73795,-36.56648,0.03667899,0.08293658,0.9855378,52.58607,35.52157,17.11096,992.04
8.428428650,20.80838,-3.038794,-36.81146,0.0492426,0.1038038,1.013694,52.58607,35.52157,17.11096,992.04
8.438474655,15.53285,15.16209,-34.72916,0.09858303,0.1088143,1.010179,52.58607,35.52157,17.11096,992.04
8.448520660,11.05477,30.07006,-39.19998,0.07663079,0.1206703,0.9487662,52.58607,35.52157,17.11096,992.0366
8.458565712,4.797741,30.24967,-47.4067,0.04698447,0.0862079,0.8883225,52.58607,35.52157,17.11096,992.0366
8.468611717,0.07429539,20.25116,-50.22393,0.03640179,0.02693469,0.859814,51.12681,32.2802,15.85171,992.0366
8.478657722,-2.379443,2.94834,-58.92061,-0.03235406,-0.05915841,0.8751152,51.12681,32.2802,15.85171,992.0366
8.488703251,-1.766008,-6.391589,-62.77899,-0.02462394,-0.208048,0.9576274,51.12681,32.2802,15.85171,992.0349
8.498749256,-0.6618261,-0.584069,-54.63352,-0.05756581,-0.2602316,0.9863888,51.12681,32.2802,15.85171,992.0349
8.508795261,2.65072,8.935473,-49.85647,-0.06365476,-0.2542346,0.9544598,51.12681,32.2802,15.85171,992.0349
8.518841267,4.000277,12.10865,-46.54929,-0.04387409,-0.2549519,0.8863241,52.23589,28.65611,15.38334,992.0349
8.528886795,4.429681,6.181392,-44.95694,-0.03953718,-0.2514584,0.8815854,52.23589,28.65611,15.38334,992.0372
8.538932800,4.736398,-0.7038116,-41.5885,-0.03794388,-0.2511734,0.9117572,52.23589,28.65611,15.38334,992.0372
8.548978805,5.717893,-3.33815,-39.87367,-0.03657841,-0.1997543,0.9344009,52.23589,28.65611,15.38334,992.0372
8.559024811,7.619541,-5.373776,-43.05836,-0.04794559,-0.1598856,0.9185508,52.23589,28.65611,15.38334,992.0372
8.569070339,10.01194,-10.70232,-45.50813,-0.04049845,-0.1642557,0.9299118,55.48716,27.92238,14.58704,992.0355
8.579116344,13.81523,-13.75576,-43.11961,-0.04860933,-0.136298,0.9516273,55.48716,27.92238,14.58704,992.0355
8.589161396,13.07911,-9.205542,-40.24113,-0.05960591,-0.07101996,0.9875664,55.48716,27.92238,14.58704,992.0355
8.599207401,6.269984,-2.320338,-42.6909,-0.08351924,-0.006999083,0.9742165,55.48716,27.92238,14.58704,992.0355
8.609253406,1.423851,-2.320338,-51.81628,-0.1314274,0.01266567,0.9322709,55.48716,27.92238,14.58704,992.0378
8.619299412,-6.673485,-5.55339,-60.81918,-0.1690284,-0.03296433,0.921923,54.07824,27.92913,14.63401,992.0378
8.629344940,-11.2129,-11.30104,-63.45267,-0.1921471,-0.1031634,0.902829,54.07824,27.92913,14.63401,992.0378
8.639390945,-10.53812,-20.94032,-64.61631,-0.1498861,-0.1437224,0.9319062,54.07824,27.92913,14.63401,992.0378
8.649436951,-8.881849,-26.92746,-62.53402,-0.1007433,-0.1453851,0.9756663,54.07824,27.92913,14.63401,992.0344
8.659482956,-8.820506,-28.00514,-58.43066,-0.05198363,-0.09518015,0.9779086,53.29986,28.22331,22.39581,992.0344
8.669528484,-4.833181,-30.81909,-51.63255,0.01164125,-0.03477596,0.9410127,53.29986,28.22331,22.39581,992.0344
8.679574490,-6.489455,-31.77703,-42.1397,0.06111269,0.03918793,0.9552535,53.29986,28.22331,22.39581,992.0344
8.689620495,-8.759162,-28.00514,-35.09662,0.1072395,0.0650747,0.9522013,53.29986,28.22331,22.39581,992.0344
8.699666500,-6.550798,-25.73003,-30.19708,0.1385318,0.1849433,0.9785377,53.29986,28.22331,22.39581,992.0344
8.709712028,-8.513788,-15.19267,-31.42197,0.1802577,0.2932595,1.005528,58.63632,33.81175,41.87139,992.0344
8.719757557,-12.56246,-8.2476,-42.93588,0.2002753,0.3276852,0.9884326,58.63632,33.81175,41.87139,992.0344
8.729803085,-18.32874,-8.367343,-58.73688,0.2305825,0.2992234,1.006338,58.63632,33.81175,41.87139,992.0344
8.739849091,-26.7328,-0.943297,-66.33115,0.2620952,0.2215433,1.037556,58.63632,33.81175,41.87139,992.0344
8.749895096,-31.57893,13.84492,-71.59815,0.1835891,0.1162487,1.001251,58.63632,33.81175,41.87139,992.0344
8.757429600,-29.06385,21.68807,-74.47662,0.1169749,0.00181329,0.9709135,66.66869,40.94272,49.80576,992.0344
8.767475605,-24.3404,24.38228,-71.47566,0.02487683,-0.1199975,0.9084672,66.66869,40.94272,49.80576,992.0367
8.777521610,-21.57994,23.24472,-66.51488,-0.04282446,-0.1773264,0.9171925,66.66869,40.94272,49.80576,992.0367
8.787567139,-16.30441,22.88549,-63.45267,-0.07413194,-0.2435609,0.9408552,66.66869,40.94272,49.80576,992.0367
8.797613144,-11.51962,22.0473,-61.86033,-0.1369716,-0.2969737,0.9544271,66.66869,40.94272,49.80576,992.0367
8.807659149,-8.145727,18.03592,-62.16655,-0.1718886,-0.3510537,0.9731005,73.30151,44.56907,45.78184,992.035
8.817705154,-7.47095,14.98248,-60.26798,-0.2037824,-0.4152304,0.9805259,73.30151,44.56907,45.78184,992.035
8.827750206,-3.115565,15.04235,-49.91771,-0.2151822,-0.4747839,0.9888958,73.30151,44.56907,45.78184,992.035
8.837796211,3.080125,16.47926,-34.05547,-0.1514533,-0.4538939,0.9669611,73.30151,44.56907,45.78184,992.035
8.847841740,16.51434,13.84492,-23.154,-0.1174133,-0.3720674,0.9445743,73.30151,44.56907,45.78184,992.037
8.857887745,19.58151,10.67174,-19.29562,-0.09248953,-0.2935068,0.9542578,73.34084,42.09403,39.19945,992.037
8.867933750,18.78405,8.516374,-15.06977,-0.05419818,-0.2174241,0.9925531,73.34084,42.09403,39.19945,992.037
8.877979755,15.16479,12.6475,-12.43627,-0.01855833,-0.1608728,1.036193,73.34084,42.09403,39.19945,992.037
8.888025284,9.950592,12.58762,-10.78268,0.01436532,-0.129928,1.051043,73.34084,42.09403,39.19945,992.037
8.898071289,5.288489,6.480749,-15.55972,0.04267778,-0.1114005,1.092953,73.34084,42.09403,39.19945,992.037
8.908117294,1.362508,-0.3445836,-26.64492,0.04208968,-0.1244264,1.143448,71.52209,37.77902,36.7155,992.037
8.918163300,0.6263865,-6.271846,-34.30045,0.02070444,-0.2353415,1.173286,71.52209,37.77902,36.7155,992.037
8.928208828,6.576702,-8.067986,-31.29948,-0.002458978,-0.3286377,1.18579,71.52209,37.77902,36.7155,992.0336
8.938254833,14.24463,-4.415834,-20.21428,0.00940891,-0.3045798,1.175701,71.52209,37.77902,36.7155,992.0336
8.948300838,18.96808,-1.661753,-12.86498,0.04844262,-0.1579704,1.150839,71.52209,37.77902,36.7155,992.0336
8.958345890,14.73538,1.810784,-14.57982,0.07770819,-0.005802336,1.147702,71.17567,29.83094,34.53151,992.0336
8.968391895,3.325499,4.624737,-21.13294,0.109236,0.05388342,1.15503,71.17567,29.83094,34.53151,992.0319
8.978437901,-2.747504,1.571299,-22.54156,0.09988631,0.05290761,1.139734,71.17567,29.83094,34.53151,992.0319
8.988483429,-0.1710784,-6.092232,-25.66501,0.1000561,0.04168706,1.144283,71.17567,29.83094,34.53151,992.0319
8.998529434,5.411176,-7.34953,-31.72819,0.1209194,0.08395492,1.120644,71.17567,29.83094,34.53151,992.0319
9.008575439,8.110289,-6.45146,-36.93394,0.133013,0.1373351,1.026405,68.60979,28.40301,33.65907,992.0342
9.018621445,7.619541,-7.828501,-43.60956,0.1267049,0.1773306,0.9353335,68.60979,28.40301,33.65907,992.0342
9.028666973,1.607882,-9.265412,-47.03924,0.1241428,0.1736884,0.896953,68.60979,28.40301,33.65907,992.0342
9.038712978,-2.011382,-3.936864,-46.73302,0.1425543,0.1529468,0.9035938,68.60979,28.40301,33.65907,992.0342
9.048758983,-5.017212,6.480749,-49.36652,0.1124198,0.1573426,0.850688,68.60979,28.40301,33.65907,992.0342
9.058804989,-6.489455,7.259076,-55.79716,0.09577303,0.124343,0.7451822,72.97955,29.03973,40.72149,992.0342
9.068850517,-5.323929,-1.54201,-60.14549,0.06792121,0.06795436,0.6924028,72.97955,29.03973,40.72149,992.0342
9.078896522,-9.802001,-4.775063,-55.98089,0.06554718,0.02941404,0.7030879,72.97955,29.03973,40.72149,992.0342
9.088942528,-11.82633,-3.637507,-49.36652,0.05444064,-0.01601568,0.7098418,72.97955,29.03973,40.72149,992.0366
9.098987579,-11.70365,-7.289659,-45.07942,0.02068094,-0.07751448,0.7470301,72.97955,29.03973,40.72149,992.0366
9.109033584,-9.495284,-13.57615,-38.83252,-0.007398305,-0.148004,0.8256646,79.9268,34.75337,45.82728,992.0366
9.119079590,-5.998707,-14.41435,-29.76837,-0.008633273,-0.2042635,0.9327149,79.9268,34.75337,45.82728,992.0366
9.129125118,-2.50213,-12.73795,-19.05064,-0.01833761,-0.2262626,0.9974367,79.9268,34.75337,45.82728,992.0331
9.139171123,3.386842,-14.65383,-10.66019,0.005330019,-0.2143893,1.076589,79.9268,34.75337,45.82728,992.0331
9.149217129,7.06745,-15.85126,-8.761619,0.01307804,-0.1557954,1.126652,79.9268,34.75337,45.82728,992.0331
9.159263134,5.84058,-16.27036,-10.5377,0.04049238,-0.1033034,1.17935,81.40238,37.65902,44.21809,992.0331
9.169308662,3.325499,-13.45641,-20.82672,0.04072017,-0.04640049,1.182001,81.40238,37.65902,44.21809,992.0314
9.179354667,0.4423561,-13.57615,-39.44496,0.02953498,-0.05283371,1.178093,81.40238,37.65902,44.21809,992.0314
9.189400673,-4.342434,-12.73795,-52.61246,-0.01411368,-0.1464877,1.20507,81.40238,37.65902,44.21809,992.0314
9.199446678,-9.924688,0.852843,-55.79716,-0.02870505,-0.2131288,1.245875,81.40238,37.65902,44.21809,992.0314
9.209492206,-10.84484,15.82068,-56.47084,-0.05469906,-0.1792317,1.223751,76.62357,31.51037,45.75586,992.0334
9.219538212,-14.21873,21.74794,-67.24981,-0.03935273,-0.1173064,1.230258,76.62357,31.51037,45.75586,992.0334
9.229584217,-18.94218,22.70588,-81.70344,-0.05837975,-0.01767829,1.212373,76.62357,31.51037,45.75586,992.0334
9.239629268,-22.31607,21.38871,-104.1188,-0.05382718,0.1222401,1.113317,76.62357,31.51037,45.75586,992.0334
9.249675274,-29.61594,15.94042,-134.4347,-0.01211881,0.141783,0.9726924,72.2087,32.25015,46.53836,992.0317
9.259721279,-41.51657,-14.59396,-159.7285,0.05181036,0.09589045,0.9028716,72.2087,32.25015,46.53836,992.0317
9.269766807,-47.3442,-45.54744,-184.1037,0.1115861,0.1174051,0.988259,72.2087,32.25015,46.53836,992.0317
9.279812813,-35.99566,-48.12191,-202.477,0.1941671,-0.00310501,1.041273,72.2087,32.25015,46.53836,992.0317
9.289858818,-12.80783,-36.20752,-207.499,0.198977,-0.1559931,1.000623,72.2087,32.25015,46.53836,992.0341
9.297393322,9.275814,-33.33369,-204.8043,0.1898652,-0.1763875,0.9801208,72.2087,32.25015,46.53836,992.0341
9.307439327,45.16174,-39.26095,-199.9047,0.1992008,-0.2128273,0.9893497,75.08009,39.74305,57.34384,992.0341
9.317485332,80.18885,-46.14616,-190.5956,0.2505503,-0.215832,1.087192,75.08009,39.74305,57.34384,992.0341
9.327530861,109.4497,-44.88886,-195.5564,0.3000089,0.07470252,1.090251,75.08009,39.74305,57.34384,992.0341
9.337576866,134.6005,-44.29015,-216.0732,0.3290098,0.2125674,0.9804809,75.08009,39.74305,57.34384,992.0341
9.347621918,154.4144,-54.22879,-228.6895,0.3021598,0.1802745,0.8942044,75.08009,39.74305,57.34384,992.0341
9.357667923,169.0755,-64.40691,-228.0158,0.2836417,0.1699368,0.8797161,83.50147,53.80429,60.00284,992.0341
9.367713928,180.056,-66.86164,-221.2177,0.3414733,0.2102972,0.912831,83.50147,53.80429,60.00284,992.0341
9.377759933,198.3363,-69.19662,-225.4436,0.3365891,0.3741148,0.8560069,83.50147,53.80429,60.00284,992.0341
9.387805462,220.1133,-76.9799,-243.8781,0.3325608,0.5410017,0.7800851,83.50147,53.80429,60.00284,992.0341
9.397851467,241.7675,-82.6078,-272.1729,0.3187979,0.6523055,0.771042,80.54734,48.71396,63.61036,992.0341
9.407897472,257.4715,-76.08183,-290.9749,0.4233905,0.3770861,0.7952468,80.54734,48.71396,63.61036,992.0323
9.417943477,261.4588,-63.92794,-280.992,0.2182207,0.5872563,0.8487524,80.54734,48.71396,63.61036,992.0323
9.427989006,249.006,-41.59594,-265.0073,0.1988719,0.4349894,0.8820077,80.54734,48.71396,63.61036,992.0323
9.438035011,236.1853,-28.18475,-227.4646,0.09912448,0.3979944,0.7840555,80.54734,48.71396,63.61036,992.0323
9.448081016,232.6273,-30.51974,-204.498,-0.04376646,0.3971066,0.6655568,79.06261,43.97822,67.23888,992.0347
9.458127022,245.2641,-27.8854,-189.6769,-0.02028781,0.3163435,0.639277,79.06261,43.97822,67.23888,992.0347
9.468172550,269.3721,-12.07936,-177.9181,-0.04881094,0.311958,0.5924013,79.06261,43.97822,67.23888,992.0347
9.478218555,303.7244,-0.6439403,-172.7123,-0.09519652,0.2836477,0.5273909,79.06261,43.97822,67.23888,992.0347
9.488263607,329.3047,0.5534864,-159.3611,-0.1102555,0.2599786,0.4790719,79.06261,43.97822,67.23888,992.0313
9.498309612,333.2306,-5.433647,-153.4816,-0.1436622,0.3949435,0.5276377,78.33514,31.65386,68.38174,992.0313
9.508355617,311.8831,-17.2283,-160.7697,-0.2201271,0.5066903,0.6185704,78.33514,31.65386,68.38174,992.0313
9.518401623,265.0781,-36.32726,-157.1563,-0.118406,0.3248866,0.8358903,78.33514,31.65386,68.38174,992.0313
9.528447151,236.7374,-50.75625,-134.0672,-0.02021469,-0.1245652,0.9914762,78.33514,31.65386,68.38174,992.0313
9.538493156,221.8922,-23.09569,-97.4432,0.009402607,-0.2325448,1.171013,78.33514,31.65386,68.38174,992.0313
9.548539162,239.5591,35.21899,-77.04888,0.0004938999,-0.0424344,1.170811,77.21889,18.20697,73.58396,992.0313
9.558585167,260.4773,82.3976,-70.43451,-0.1023396,0.2471411,0.9165233,77.21889,18.20697,73.58396,992.0313
9.568630695,248.3926,96.70685,-62.84024,-0.1719357,0.5993478,0.7352356,77.21889,18.20697,73.58396,992.0336
9.578676700,212.384,91.91714,-52.00002,-0.2044007,0.7384018,0.5592516,77.21889,18.20697,73.58396,992.0336
9.588722706,160.1194,70.30359,-22.1741,-0.2029921,0.6879737,0.2731863,77.21889,18.20697,73.58396,992.0336
9.598768711,116.2588,41.62522,-4.535769,-0.2588665,0.6382575,0.3251158,83.80354,27.92315,77.00585,992.0336
9.608814239,86.07782,44.55892,9.979104,-0.1853604,0.6040338,0.4715025,83.80354,27.92315,77.00585,992.0319
9.618860245,74.11585,62.16109,24.61647,-0.1808069,0.7023636,0.4711825,83.80354,27.92315,77.00585,992.0319
9.628906250,67.18404,66.17247,9.48915,-0.1745664,0.7281902,0.4094351,83.80354,27.92315,77.00585,992.0319
9.638951301,62.82865,62.52032,1.282429,-0.172424,0.6870058,0.3237682,83.80354,27.92315,77.00585,992.0319
9.648997307,73.99316,48.63017,-3.433373,-0.2143781,0.6230338,0.1535589,79.42649,19.65214,72.79679,992.0357
9.659043312,84.85095,17.67669,-1.412315,-0.209619,0.5436817,0.1025057,79.42649,19.65214,72.79679,992.0357
9.669088840,86.13917,-2.080852,11.14274,-0.2330823,0.6031501,0.1800583,79.42649,19.65214,72.79679,992.0357
9.679134846,86.69126,-8.367343,25.90259,-0.145814,0.5953581,0.1947415,79.42649,19.65214,72.79679,992.0357
9.689180851,65.58911,-7.828501,38.39641,-0.1768793,0.9349762,0.4018893,79.42649,19.65214,72.79679,992.0322
9.699226856,59.20939,4.145766,32.21074,-0.1210827,1.034758,0.4884907,71.7457,8.863201,68.4598,992.0322
9.709272385,46.26592,9.833543,24.249,-0.09931484,1.139674,0.4149364,71.7457,8.863201,68.4598,992.0322
9.719318390,37.67783,8.995344,4.405883,-0.1679782,1.205429,0.3554091,71.7457,8.863201,68.4598,992.0322
9.729364395,21.1151,-7.529144,-10.96641,-0.1075304,0.9852339,0.2986491,71.7457,8.863201,68.4598,992.0322
9.739410400,5.717893,-22.79633,-8.577886,-0.09056565,0.7650111,0.3719243,71.7457,8.863201,68.4598,992.0322
9.749455929,1.669225,-27.22681,-11.15014,-0.1577229,0.6512669,0.4455383,73.94329,9.202774,69.69913,992.0322
9.759501934,-1.704665,-27.8854,-11.15014,-0.1360427,0.5636904,0.5493997,73.94329,9.202774,69.69913,992.0322
9.769547939,-4.955868,-16.3901,-2.453466,-0.1738783,0.5758638,0.5508245,73.94329,9.202774,69.69913,992.0363
9.779593944,-5.630646,-6.092232,5.875743,-0.1956808,0.5903243,0.532573,73.94329,9.202774,69.69913,992.0363
9.789638996,-2.992878,9.115088,17.81836,-0.1628334,0.6900914,0.5163233,73.94329,9.202774,69.69913,992.0363
9.799685001,1.669225,22.28678,25.29015,-0.1363424,0.8105674,0.4516967,69.93563,7.103367,63.90002,992.0363
9.809730530,0.3196692,31.38722,23.51407,-0.08082405,0.8984466,0.4360271,69.93563,7.103367,63.90002,992.038
9.819776535,-6.428111,37.4941,17.69587,-0.0853466,0.9398344,0.4235247,69.93563,7.103367,63.90002,992.038
9.829822540,-12.25574,37.55397,13.59251,-0.1020888,0.8815761,0.4453623,69.93563,7.103367,63.90002,992.038
9.839868545,-14.34142,41.02651,11.26523,-0.1367481,0.8526174,0.4885187,69.93563,7.103367,63.90002,992.038
9.849914074,-16.97919,55.15614,14.38869,-0.1751886,0.8768666,0.5007418,67.74433,7.137236,61.45467,992.0363
9.857449055,-15.875,66.83105,18.982,-0.240099,0.8642548,0.386835,67.74433,7.137236,61.45467,992.0363
9.867494583,-10.72215,83.71477,24.55522,-0.2739511,0.9866436,0.2919258,67.74433,7.137236,61.45467,992.0363
9.877540588,-10.35409,97.84441,32.39448,-0.2636968,1.191806,0.1286148,67.74433,7.137236,61.45467,992.0363
9.887586594,-18.94218,95.15019,29.45476,-0.2363301,1.365123,0.09097552,67.74433,7.137236,61.45467,992.0363
9.897632122,-31.14952,77.90725,20.88057,-0.187246,1.371986,0.03337856,62.63714,2.931048,55.55795,992.0346
9.907677650,-41.82328,46.83403,8.386755,-0.1477599,1.308428,0.1424451,62.63714,2.931048,55.55795,992.0346
9.917723656,-45.38121,28.75289,0.1800338,-0.1459237,1.222625,0.3029701,62.63714,2.931048,55.55795,992.0346
9.927769184,-28.38907,22.88549,-7.781711,-0.1884994,1.150227,0.4185231,62.63714,2.931048,55.55795,992.0346
9.937815189,-5.017212,28.21404,-5.331944,-0.2038459,1.146667,0.4803168,62.63714,2.931048,55.55795,992.0386
9.947861195,-0.2937654,43.24175,10.89777,-0.1730885,1.29847,0.5959455,54.22935,-4.937232,49.20366,992.0386
9.957907200,4.675055,67.90874,19.65569,-0.2292714,1.502304,0.5689938,54.22935,-4.937232,49.20366,992.0386
9.967952728,4.736398,83.53516,16.65472,-0.2168331,1.541795,0.511815,54.22935,-4.937232,49.20366,992.0386
9.977998734,6.576702,89.22293,15.49108,-0.2787484,1.495961,0.4220884,54.22935,-4.937232,49.20366,992.0386
9.988044739,18.41599,86.04975,18.61454,-0.3054117,1.399762,0.2937348,54.22935,-4.937232,49.20366,992.0386
9.998090744,27.43348,74.43472,24.18776,-0.3112739,1.479652,0.2030336,51.37569,-8.510542,45.44126,992.0386
10.008136272,22.28063,53.95872,17.08343,-0.3261629,1.612934,0.1140008,51.37569,-8.510542,45.44126,992.0386
10.018182278,4.306994,14.56338,-4.597013,-0.2396934,1.537906,0.07456708,51.37569,-8.510542,45.44126,992.0386
10.028228283,-18.08337,-31.83691,-15.68221,-0.1011214,1.299698,0.1506249,51.37569,-8.510542,45.44126,992.0386
10.038273811,-27.46892,-55.12685,-19.41811,-0.05859834,1.166836,0.2950749,44.79598,-16.40371,40.76399,992.0386
10.048319816,-22.13204,-59.79682,-29.27842,0.01729052,0.9682489,0.3694478,44.79598,-16.40371,40.76399,992.0386
10.058365345,-8.575131,-54.88737,-35.09662,0.07825103,0.7689465,0.3835382,44.79598,-16.40371,40.76399,992.0403
10.068410873,3.264155,-51.23522,-34.42294,0.07031567,0.6713225,0.2818734,44.79598,-16.40371,40.76399,992.0403
10.078456878,8.232976,-59.13824,-28.84971,0.06162615,0.6145573,0.2462238,44.79598,-16.40371,40.76399,992.0403
10.088502884,8.355662,-69.07687,-26.39994,0.01888469,0.6071938,0.1835566,45.16394,-18.94547,41.18893,992.0403
10.098548889,5.472519,-84.34407,-28.91096,0.01024038,0.56367,0.199917,45.16394,-18.94547,41.18893,992.0403
10.108594417,-4.342434,-85.24213,-21.74539,0.05193521,0.5598528,0.3260528,45.16394,-18.94547,41.18893,992.0403
10.118640423,-9.802001,-69.01701,-12.00756,0.03024587,0.6267833,0.3841177,45.16394,-18.94547,41.18893,992.0403
10.128686428,-11.39693,-47.58307,-4.84199,0.05878668,0.6178229,0.3933496,45.16394,-18.94547,41.18893,992.0403
10.138732433,-9.986032,-33.57317,-2.882176,0.02296702,0.6378753,0.318777,50.65975,-15.0083,43.33089,992.0386
10.148777962,-4.342434,-31.29807,-4.229548,-0.0115142,0.5899407,0.2298134,50.65975,-15.0083,43.33089,992.0386
10.158823967,0.7490734,-35.01009,-6.618072,-0.03223719,0.5923558,0.1974091,50.65975,-15.0083,43.33089,992.0386
10.168869972,3.509529,-41.53606,-9.435305,-0.03713534,0.5908784,0.1916568,50.65975,-15.0083,43.33089,992.0386
10.178915500,-0.04839152,-48.00217,-10.10899,-0.03065502,0.624867,0.2115055,50.65975,-15.0083,43.33089,992.0386
10.188961506,-5.139899,-52.25303,-14.82479,-0.03617034,0.6042293,0.2302534,53.21807,-12.86707,45.42009,992.0386
10.199007511,-9.311254,-54.58801,-17.21332,-0.03403704,0.5617654,0.252804,53.21807,-12.86707,45.42009,992.0386
10.209053516,-9.986032,-53.39059,-15.68221,-0.0417322,0.5183023,0.2624551,53.21807,-12.86707,45.42009,992.0386
10.219099045,-8.391102,-49.49895,-10.5377,-0.01963134,0.4847981,0.2908354,53.21807,-12.86707,45.42009,992.0386
10.229144573,-3.238251,-39.26095,-7.597979,-0.02732489,0.5090767,0.2842115,53.21807,-12.86707,45.42009,992.0386
10.239190578,1.362508,-29.74141,-6.373095,-0.028226,0.4984731,0.2691422,55.72355,-10.34854,45.92056,992.0386
10.249236107,4.06162,-21.71865,-4.964478,-0.04597345,0.5056137,0.2607704,55.72355,-10.34854,45.92056,992.0386
10.259282112,2.528033,-15.49203,-1.596048,-0.04700998,0.5564536,0.2920361,55.72355,-10.34854,45.92056,992.0403
10.269328117,-2.992878,-13.81563,-0.3711639,-0.06608947,0.6368021,0.3158883,55.72355,-10.34854,45.92056,992.0403
10.279374122,-8.943192,-15.37229,-1.596048,-0.08253449,0.6818067,0.3873462,55.72355,-10.34854,45.92056,992.0403
10.289419651,-11.45827,-13.57615,-1.167338,-0.09763233,0.693871,0.4418088,57.18952,-7.095965,45.9702,992.0403
10.299465656,-8.636476,-5.792875,0.05754542,-0.09992208,0.6954832,0.4835252,57.18952,-7.095965,45.9702,992.0421
10.309511661,-2.011382,5.343193,0.6699873,-0.114154,0.7256866,0.4540735,57.18952,-7.095965,45.9702,992.0421
10.319557190,5.472519,12.58762,-1.351071,-0.1386933,0.7553431,0.4155663,57.18952,-7.095965,45.9702,992.0421
10.329603195,12.52702,14.86274,-3.555862,-0.1561991,0.7690838,0.3699753,57.18952,-7.095965,45.9702,992.0421
10.339649200,14.0606,11.45007,-4.903234,-0.1658516,0.7876346,0.3450394,57.19276,-5.638728,45.09323,992.0438
10.349695206,10.50268,1.63117,-11.94632,-0.1931194,0.8595815,0.3730675,57.19276,-5.638728,45.09323,992.0438
10.359740734,3.693559,-3.098665,-19.05064,-0.1877797,0.8403507,0.4171709,57.19276,-5.638728,45.09323,992.0438
10.369786739,-1.397948,-2.200595,-16.3559,-0.1983731,0.8342289,0.4381723,57.19276,-5.638728,45.09323,992.0438
10.379832268,-3.299595,2.888469,-9.925258,-0.203921,0.9135971,0.4193022,57.19276,-5.638728,45.09323,992.0455
10.389877796,-12.07171,-2.140723,-8.271665,-0.2000831,1.012297,0.3672663,56.09132,-6.720319,45.13308,992.0455
10.397412300,-22.31607,-9.864126,-8.332909,-0.1734917,1.046921,0.4004295,56.09132,-6.720319,45.13308,992.0455
10.407458305,-28.02101,-13.81563,-8.516642,-0.08905915,0.9859266,0.5006837,56.09132,-6.720319,45.13308,992.0455
10.417504310,-28.5731,-8.906184,-13.84489,-0.06544809,0.9728201,0.6027721,56.09132,-6.720319,45.13308,992.0455
10.427550316,-25.13787,-1.661753,-22.35783,-0.09364709,0.9447246,0.6717754,56.09132,-6.720319,45.13308,992.0455
10.437595844,-22.07069,2.768726,-24.2564,-0.1479135,0.9203427,0.7213633,56.09089,-6.358073,45.13666,992.0455
10.447641849,-22.07069,10.01316,-14.33484,-0.1723692,1.008225,0.7703116,56.09089,-6.358073,45.13666,992.0455
10.457687855,-26.24205,23.48421,-4.597013,-0.212229,1.201023,0.7497405,56.09089,-6.358073,45.13666,992.0455
10.467733860,-27.77563,31.32735,-1.657292,-0.2226125,1.329909,0.6706474,56.09089,-6.358073,45.13666,992.0455
10.477779388,-22.25472,36.71577,-0.1874314,-0.2034713,1.410496,0.5932352,56.09089,-6.358073,45.13666,992.0455
10.487825394,-12.50111,42.22393,1.343673,-0.170399,1.500245,0.4838522,56.46124,-4.903338,44.32771,992.0455
10.497870445,-11.39693,41.92458,5.140813,-0.1418156,1.62562,0.3517855,56.46124,-4.903338,44.32771,992.0507
10.507916450,-16.61112,29.59109,-4.045815,-0.1276304,1.691985,0.2151847,56.46124,-4.903338,44.32771,992.0507
10.517962456,-26.91683,8.695988,-15.49848,-0.1363596,1.587859,0.1363755,56.46124,-4.903338,44.32771,992.0507
10.528008461,-38.63343,-14.95319,-15.43723,-0.1316302,1.45936,0.1532431,56.46124,-4.903338,44.32771,992.0507
10.538053989,-41.7006,-27.64591,-10.04775,-0.1120671,1.332684,0.211738,53.96202,-5.233657,42.25713,992.054
10.548099995,-36.30238,-28.3045,-7.47549,-0.1683826,1.291785,0.1881826,53.96202,-5.233657,42.25713,992.054
10.558146000,-34.95282,-29.50192,-4.229548,-0.1914669,1.269299,0.0977843,53.96202,-5.233657,42.25713,992.054
10.568192005,-38.44939,-33.39356,2.568557,-0.179629,1.248358,0.05416608,53.96202,-5.233657,42.25713,992.054
10.578237533,-37.71328,-39.3807,3.242243,-0.2078953,1.137887,0.0783045,53.96202,-5.233657,42.25713,992.0575
10.588283539,-30.4134,-46.08628,5.018324,-0.2151588,0.9970839,0.2271678,52.49554,-5.946374,41.7869,992.0575
10.598329544,-22.19338,-47.28371,9.91786,-0.2123956,0.9418158,0.4711997,52.49554,-5.946374,41.7869,992.0575
10.608375549,-14.40276,-44.11053,10.95901,-0.2199157,0.9029499,0.6504996,52.49554,-5.946374,41.7869,992.0575
10.618421078,-8.697819,-38.72211,6.488185,-0.2071359,0.8311154,0.7820466,52.49554,-5.946374,41.7869,992.0609
10.628467083,-2.256756,-28.78347,3.977174,-0.2153065,0.7649274,0.8381531,53.23587,-4.852264,40.59675,992.0609
10.638513088,1.546538,-13.45641,8.141778,-0.2228228,0.7224618,0.7783753,53.23587,-4.852264,40.59675,992.0609
10.648559093,3.386842,-2.260466,12.00016,-0.2293749,0.6932161,0.6422412,53.23587,-4.852264,40.59675,992.0609
10.658604622,3.141468,5.043837,8.01929,-0.2369694,0.661211,0.4825848,53.23587,-4.852264,40.59675,992.0586
10.668650150,1.791912,8.695988,8.447999,-0.2510129,0.5757984,0.3639717,53.23587,-4.852264,40.59675,992.0586
10.678695679,3.448185,10.85136,15.67481,-0.2355342,0.5317125,0.2982862,55.73549,-3.06942,42.29966,992.0586
10.688741684,6.024611,13.84492,19.96191,-0.2154861,0.5580028,0.262816,55.73549,-3.06942,42.29966,992.0586
10.698787689,5.533863,14.56338,19.59444,-0.1692167,0.6082507,0.2550147,55.73549,-3.06942,42.29966,992.0603
10.708833694,3.877589,14.80286,14.08246,-0.1718324,0.6241965,0.2654276,55.73549,-3.06942,42.29966,992.0603
10.718879223,1.730569,14.08441,10.10159,-0.1726853,0.5775006,0.2629983,55.73549,-3.06942,42.29966,992.0603
10.728925228,-2.624817,13.12647,9.48915,-0.198117,0.5705141,0.2443088,55.79001,-1.266165,43.14591,992.0603
10.738971233,-7.654981,7.079462,6.916894,-0.2358965,0.5621443,0.1945248,55.79001,-1.266165,43.14591,992.0637
10.749017239,-12.1944,-6.211975,4.773348,-0.2567477,0.5766622,0.1700429,55.79001,-1.266165,43.14591,992.0637
10.759062767,-17.59262,-17.2283,2.323581,-0.2439707,0.628907,0.2319165,55.79001,-1.266165,43.14591,992.0637
10.769108772,-21.02785,-21.95813,-3.127152,-0.2439879,0.6408251,0.2652193,55.79001,-1.266165,43.14591,992.0637
10.779154777,-20.16904,-27.82553,-8.210421,-0.2419461,0.5715371,0.2967768,53.59908,-3.046477,41.00098,992.0654
10.789200783,-15.56829,-30.93884,-8.210421,-0.1912046,0.5365162,0.3810063,53.59908,-3.046477,41.00098,992.0654
10.799246311,-10.84484,-21.89826,-7.108025,-0.1521872,0.5761991,0.4750375,53.59908,-3.046477,41.00098,992.0654
10.809292316,-6.612142,-9.385155,-12.80373,-0.1616582,0.5911192,0.4811553,53.59908,-3.046477,41.00098,992.0654
10.819338322,-2.3181,-3.457893,-16.96834,-0.1852267,0.5525807,0.4560344,53.59908,-3.046477,41.00098,992.0614
10.829384327,0.3810127,-6.152103,-18.31571,-0.2417825,0.5623614,0.4206305,53.23493,-1.950163,40.17974,992.0614
10.839429378,0.07429539,-9.205542,-16.96834,-0.2796838,0.6016201,0.3771328,53.23493,-1.950163,40.17974,992.0614
10.849475384,-3.728999,-13.69589,-12.74249,-0.3019955,0.6638778,0.275129,53.23493,-1.950163,40.17974,992.0614
10.859520912,-14.70948,-25.96951,-11.33387,-0.3127062,0.743635,0.1945096,53.23493,-1.950163,40.17974,992.0614
10.869566917,-29.92266,-46.08628,-16.66212,-0.2916094,0.7779056,0.2003945,53.23493,-1.950163,40.17974,992.0614
10.879612923,-43.97031,-59.25798,-18.80566,-0.2273206,0.7718401,0.3392907,53.60153,-1.227582,40.19126,992.0614
10.889658928,-49.79794,-60.0363,-21.99036,-0.1492307,0.7614933,0.4880781,53.60153,-1.227582,40.19126,992.0614
